Time,Header.seq,Header.stamp.secs,Header.stamp.nsecs,Header.frame_id,IMU.header.seq,IMU.header.stamp.secs,IMU.header.stamp.nsecs,IMU.header.frame_id,IMU.orientation.x,IMU.orientation.y,IMU.orientation.z,IMU.orientation.w,IMU.orientation_covariance,IMU.angular_velocity.x,IMU.angular_velocity.y,IMU.angular_velocity.z,IMU.angular_velocity_covariance,IMU.linear_acceleration.x,IMU.linear_acceleration.y,IMU.linear_acceleration.z,IMU.linear_acceleration_covariance,MagField.header.seq,MagField.header.stamp.secs,MagField.header.stamp.nsecs,MagField.header.frame_id,MagField.magnetic_field.x,MagField.magnetic_field.y,MagField.magnetic_field.z,MagField.magnetic_field_covariance
1666913724.7279725,0,1666913724,727311849,IMU1_Frame,0,0,0,,-0.015192644168569368,-0.01507247788668339,0.870030382087236,0.4925333879227486,"(0.0, 0.0, 0.0, 0.0, 0.0, 0.0, 0.0, 0.0, 0.0)",-0.000706,-0.00036,-0.001486,"(0.0, 0.0, 0.0, 0.0, 0.0, 0.0, 0.0, 0.0, 0.0)",0.095,0.374,-9.9,"(0.0, 0.0, 0.0, 0.0, 0.0, 0.0, 0.0, 0.0, 0.0)",0,0,0,,-0.3484,-0.1317,0.1645,"(0.0, 0.0, 0.0, 0.0, 0.0, 0.0, 0.0, 0.0, 0.0)"
1666913724.753327,0,1666913724,752619504,IMU1_Frame,0,0,0,,-0.015192644168569368,-0.01507247788668339,0.870030382087236,0.4925333879227486,"(0.0, 0.0, 0.0, 0.0, 0.0, 0.0, 0.0, 0.0, 0.0)",-0.000578,2.5e-05,0.000141,"(0.0, 0.0, 0.0, 0.0, 0.0, 0.0, 0.0, 0.0, 0.0)",0.109,0.396,-9.876,"(0.0, 0.0, 0.0, 0.0, 0.0, 0.0, 0.0, 0.0, 0.0)",0,0,0,,-0.3485,-0.1347,0.1681,"(0.0, 0.0, 0.0, 0.0, 0.0, 0.0, 0.0, 0.0, 0.0)"
1666913724.778514,0,1666913724,777424097,IMU1_Frame,0,0,0,,-0.015192644168569368,-0.01507247788668339,0.870030382087236,0.4925333879227486,"(0.0, 0.0, 0.0, 0.0, 0.0, 0.0, 0.0, 0.0, 0.0)",-0.000598,0.001096,-0.001682,"(0.0, 0.0, 0.0, 0.0, 0.0, 0.0, 0.0, 0.0, 0.0)",0.096,0.422,-9.836,"(0.0, 0.0, 0.0, 0.0, 0.0, 0.0, 0.0, 0.0, 0.0)",0,0,0,,-0.3476,-0.1407,0.1647,"(0.0, 0.0, 0.0, 0.0, 0.0, 0.0, 0.0, 0.0, 0.0)"
1666913724.802965,0,1666913724,802225589,IMU1_Frame,0,0,0,,-0.015193038759911223,-0.01507208013902394,0.8700174872951398,0.49255616509609723,"(0.0, 0.0, 0.0, 0.0, 0.0, 0.0, 0.0, 0.0, 0.0)",0.001221,-0.001455,-0.000641,"(0.0, 0.0, 0.0, 0.0, 0.0, 0.0, 0.0, 0.0, 0.0)",0.135,0.415,-9.816,"(0.0, 0.0, 0.0, 0.0, 0.0, 0.0, 0.0, 0.0, 0.0)",0,0,0,,-0.3486,-0.1446,0.1623,"(0.0, 0.0, 0.0, 0.0, 0.0, 0.0, 0.0, 0.0, 0.0)"
1666913724.8281283,0,1666913724,827317714,IMU1_Frame,0,0,0,,-0.01518584214470569,-0.0150759827556286,0.8700045472670926,0.49257912326537884,"(0.0, 0.0, 0.0, 0.0, 0.0, 0.0, 0.0, 0.0, 0.0)",-0.000841,-0.000279,-0.000343,"(0.0, 0.0, 0.0, 0.0, 0.0, 0.0, 0.0, 0.0, 0.0)",0.088,0.41,-9.872,"(0.0, 0.0, 0.0, 0.0, 0.0, 0.0, 0.0, 0.0, 0.0)",0,0,0,,-0.3476,-0.1377,0.1635,"(0.0, 0.0, 0.0, 0.0, 0.0, 0.0, 0.0, 0.0, 0.0)"
1666913724.8535523,0,1666913724,852775335,IMU1_Frame,0,0,0,,-0.015185973706895983,-0.015075850233581994,0.8700002486702018,0.4925867154685512,"(0.0, 0.0, 0.0, 0.0, 0.0, 0.0, 0.0, 0.0, 0.0)",0.000468,0.000339,-0.000796,"(0.0, 0.0, 0.0, 0.0, 0.0, 0.0, 0.0, 0.0, 0.0)",0.138,0.396,-9.846,"(0.0, 0.0, 0.0, 0.0, 0.0, 0.0, 0.0, 0.0, 0.0)",0,0,0,,-0.3504,-0.1386,0.1668,"(0.0, 0.0, 0.0, 0.0, 0.0, 0.0, 0.0, 0.0, 0.0)"
1666913724.878408,0,1666913724,877550601,IMU1_Frame,0,0,0,,-0.01518584214470569,-0.0150759827556286,0.8700045472670926,0.49257912326537884,"(0.0, 0.0, 0.0, 0.0, 0.0, 0.0, 0.0, 0.0, 0.0)",0.000495,-6.8e-05,-0.001238,"(0.0, 0.0, 0.0, 0.0, 0.0, 0.0, 0.0, 0.0, 0.0)",0.105,0.427,-9.815,"(0.0, 0.0, 0.0, 0.0, 0.0, 0.0, 0.0, 0.0, 0.0)",0,0,0,,-0.3486,-0.1397,0.1599,"(0.0, 0.0, 0.0, 0.0, 0.0, 0.0, 0.0, 0.0, 0.0)"
1666913724.9031608,0,1666913724,902209520,IMU1_Frame,0,0,0,,-0.0151904039636239,-0.015083309856716477,0.8699958184134736,0.49259417509168574,"(0.0, 0.0, 0.0, 0.0, 0.0, 0.0, 0.0, 0.0, 0.0)",0.000392,-0.000694,-0.00027,"(0.0, 0.0, 0.0, 0.0, 0.0, 0.0, 0.0, 0.0, 0.0)",0.104,0.416,-9.844,"(0.0, 0.0, 0.0, 0.0, 0.0, 0.0, 0.0, 0.0, 0.0)",0,0,0,,-0.3484,-0.1317,0.1633,"(0.0, 0.0, 0.0, 0.0, 0.0, 0.0, 0.0, 0.0, 0.0)"
1666913724.927995,0,1666913724,927199125,IMU1_Frame,0,0,0,,-0.015197995083118575,-0.015079009350021162,0.8699958630938179,0.4925939936926942,"(0.0, 0.0, 0.0, 0.0, 0.0, 0.0, 0.0, 0.0, 0.0)",0.000123,0.00052,-0.00033,"(0.0, 0.0, 0.0, 0.0, 0.0, 0.0, 0.0, 0.0, 0.0)",0.12,0.399,-9.827,"(0.0, 0.0, 0.0, 0.0, 0.0, 0.0, 0.0, 0.0, 0.0)",0,0,0,,-0.3486,-0.1436,0.167,"(0.0, 0.0, 0.0, 0.0, 0.0, 0.0, 0.0, 0.0, 0.0)"
1666913724.9534426,0,1666913724,952719688,IMU1_Frame,0,0,0,,-0.015190272336335943,-0.015083442417424084,0.8700001170754624,0.4925865829271742,"(0.0, 0.0, 0.0, 0.0, 0.0, 0.0, 0.0, 0.0, 0.0)",-0.000408,-0.000853,-0.000819,"(0.0, 0.0, 0.0, 0.0, 0.0, 0.0, 0.0, 0.0, 0.0)",0.139,0.412,-9.789,"(0.0, 0.0, 0.0, 0.0, 0.0, 0.0, 0.0, 0.0, 0.0)",0,0,0,,-0.3494,-0.1337,0.1633,"(0.0, 0.0, 0.0, 0.0, 0.0, 0.0, 0.0, 0.0, 0.0)"
1666913724.9782856,0,1666913724,977665901,IMU1_Frame,0,0,0,,-0.015193696389007189,-0.015071417203302233,0.8699959946498717,0.49259412630146454,"(0.0, 0.0, 0.0, 0.0, 0.0, 0.0, 0.0, 0.0, 0.0)",0.000624,2e-06,-0.000846,"(0.0, 0.0, 0.0, 0.0, 0.0, 0.0, 0.0, 0.0, 0.0)",0.149,0.397,-9.843,"(0.0, 0.0, 0.0, 0.0, 0.0, 0.0, 0.0, 0.0, 0.0)",0,0,0,,-0.3485,-0.1347,0.1645,"(0.0, 0.0, 0.0, 0.0, 0.0, 0.0, 0.0, 0.0, 0.0)"
1666913725.0031404,0,1666913725,2186536,IMU1_Frame,0,0,0,,-0.015193433340839932,-0.015071682381034249,0.8700045919067432,0.4925789419318532,"(0.0, 0.0, 0.0, 0.0, 0.0, 0.0, 0.0, 0.0, 0.0)",-0.00043,-0.001701,0.001577,"(0.0, 0.0, 0.0, 0.0, 0.0, 0.0, 0.0, 0.0, 0.0)",0.142,0.386,-9.839,"(0.0, 0.0, 0.0, 0.0, 0.0, 0.0, 0.0, 0.0, 0.0)",0,0,0,,-0.3485,-0.1367,0.1634,"(0.0, 0.0, 0.0, 0.0, 0.0, 0.0, 0.0, 0.0, 0.0)"
1666913725.0281496,0,1666913725,27321815,IMU1_Frame,0,0,0,,-0.01519685739551931,-0.015059657164986081,0.8700004693398413,0.49258648540112154,"(0.0, 0.0, 0.0, 0.0, 0.0, 0.0, 0.0, 0.0, 0.0)",0.000233,-0.001098,-0.000773,"(0.0, 0.0, 0.0, 0.0, 0.0, 0.0, 0.0, 0.0, 0.0)",0.128,0.388,-9.843,"(0.0, 0.0, 0.0, 0.0, 0.0, 0.0, 0.0, 0.0, 0.0)",0,0,0,,-0.3485,-0.1387,0.1622,"(0.0, 0.0, 0.0, 0.0, 0.0, 0.0, 0.0, 0.0, 0.0)"
1666913725.053001,0,1666913725,52146673,IMU1_Frame,0,0,0,,-0.015192427412305141,-0.01505219755758381,0.8700048993230555,0.49257902579371937,"(0.0, 0.0, 0.0, 0.0, 0.0, 0.0, 0.0, 0.0, 0.0)",9.1e-05,-0.000582,-0.000503,"(0.0, 0.0, 0.0, 0.0, 0.0, 0.0, 0.0, 0.0, 0.0)",0.115,0.429,-9.83,"(0.0, 0.0, 0.0, 0.0, 0.0, 0.0, 0.0, 0.0, 0.0)",0,0,0,,-0.3494,-0.1357,0.1645,"(0.0, 0.0, 0.0, 0.0, 0.0, 0.0, 0.0, 0.0, 0.0)"
1666913725.0781739,0,1666913725,77366113,IMU1_Frame,0,0,0,,-0.01518887185779461,-0.01506435525626034,0.8700133203930235,0.49256388997886075,"(0.0, 0.0, 0.0, 0.0, 0.0, 0.0, 0.0, 0.0, 0.0)",-0.000978,-0.000957,0.00014,"(0.0, 0.0, 0.0, 0.0, 0.0, 0.0, 0.0, 0.0, 0.0)",0.105,0.402,-9.813,"(0.0, 0.0, 0.0, 0.0, 0.0, 0.0, 0.0, 0.0, 0.0)",0,0,0,,-0.3485,-0.1347,0.1634,"(0.0, 0.0, 0.0, 0.0, 0.0, 0.0, 0.0, 0.0, 0.0)"
1666913725.1033604,0,1666913725,102221727,IMU1_Frame,0,0,0,,-0.015189134778080114,-0.015064090158142336,0.8700047233988565,0.49257907450081545,"(0.0, 0.0, 0.0, 0.0, 0.0, 0.0, 0.0, 0.0, 0.0)",-5.9e-05,0.000791,-0.00079,"(0.0, 0.0, 0.0, 0.0, 0.0, 0.0, 0.0, 0.0, 0.0)",0.106,0.426,-9.842,"(0.0, 0.0, 0.0, 0.0, 0.0, 0.0, 0.0, 0.0, 0.0)",0,0,0,,-0.3466,-0.1338,0.1646,"(0.0, 0.0, 0.0, 0.0, 0.0, 0.0, 0.0, 0.0, 0.0)"
1666913725.1281753,0,1666913725,127163648,IMU1_Frame,0,0,0,,-0.015181280585023677,-0.015068655498752036,0.8700132757940644,0.4925640712469191,"(0.0, 0.0, 0.0, 0.0, 0.0, 0.0, 0.0, 0.0, 0.0)",-0.001264,0.000243,-0.001454,"(0.0, 0.0, 0.0, 0.0, 0.0, 0.0, 0.0, 0.0, 0.0)",0.1,0.413,-9.801,"(0.0, 0.0, 0.0, 0.0, 0.0, 0.0, 0.0, 0.0, 0.0)",0,0,0,,-0.3476,-0.1367,0.1587,"(0.0, 0.0, 0.0, 0.0, 0.0, 0.0, 0.0, 0.0, 0.0)"
1666913725.1527264,0,1666913725,152034282,IMU1_Frame,0,0,0,,-0.015170528110566526,-0.015084715889779448,0.8700087563228281,0.4925718935799902,"(0.0, 0.0, 0.0, 0.0, 0.0, 0.0, 0.0, 0.0, 0.0)",0.000325,-0.001372,-0.001595,"(0.0, 0.0, 0.0, 0.0, 0.0, 0.0, 0.0, 0.0, 0.0)",0.101,0.427,-9.886,"(0.0, 0.0, 0.0, 0.0, 0.0, 0.0, 0.0, 0.0, 0.0)",0,0,0,,-0.3457,-0.1388,0.1624,"(0.0, 0.0, 0.0, 0.0, 0.0, 0.0, 0.0, 0.0, 0.0)"
1666913725.1778712,0,1666913725,177030324,IMU1_Frame,0,0,0,,-0.015155213920541871,-0.015093448753202315,0.8700129650536151,0.4925646637086079,"(0.0, 0.0, 0.0, 0.0, 0.0, 0.0, 0.0, 0.0, 0.0)",-0.000692,-0.000593,-0.000651,"(0.0, 0.0, 0.0, 0.0, 0.0, 0.0, 0.0, 0.0, 0.0)",0.108,0.398,-9.852,"(0.0, 0.0, 0.0, 0.0, 0.0, 0.0, 0.0, 0.0, 0.0)",0,0,0,,-0.3485,-0.1367,0.1646,"(0.0, 0.0, 0.0, 0.0, 0.0, 0.0, 0.0, 0.0, 0.0)"
1666913725.2023466,0,1666913725,201863765,IMU1_Frame,0,0,0,,-0.015155082204776696,-0.015093581006818471,0.8700172634580677,0.49255707139446503,"(0.0, 0.0, 0.0, 0.0, 0.0, 0.0, 0.0, 0.0, 0.0)",0.000624,1.6e-05,-0.000773,"(0.0, 0.0, 0.0, 0.0, 0.0, 0.0, 0.0, 0.0, 0.0)",0.12,0.399,-9.822,"(0.0, 0.0, 0.0, 0.0, 0.0, 0.0, 0.0, 0.0, 0.0)",0,0,0,,-0.3466,-0.1358,0.1611,"(0.0, 0.0, 0.0, 0.0, 0.0, 0.0, 0.0, 0.0, 0.0)"
1666913725.2285783,0,1666913725,227519035,IMU1_Frame,0,0,0,,-0.01516973825589444,-0.01508551019609567,0.8700345461342645,0.492526339352847,"(0.0, 0.0, 0.0, 0.0, 0.0, 0.0, 0.0, 0.0, 0.0)",0.000359,0.000411,-0.000252,"(0.0, 0.0, 0.0, 0.0, 0.0, 0.0, 0.0, 0.0, 0.0)",0.139,0.417,-9.866,"(0.0, 0.0, 0.0, 0.0, 0.0, 0.0, 0.0, 0.0, 0.0)",0,0,0,,-0.3485,-0.1347,0.1657,"(0.0, 0.0, 0.0, 0.0, 0.0, 0.0, 0.0, 0.0, 0.0)"
1666913725.2532468,0,1666913725,252152919,IMU1_Frame,0,0,0,,-0.01516973825589444,-0.01508551019609567,0.8700345461342645,0.492526339352847,"(0.0, 0.0, 0.0, 0.0, 0.0, 0.0, 0.0, 0.0, 0.0)",0.000593,-0.000491,-0.001015,"(0.0, 0.0, 0.0, 0.0, 0.0, 0.0, 0.0, 0.0, 0.0)",0.136,0.405,-9.866,"(0.0, 0.0, 0.0, 0.0, 0.0, 0.0, 0.0, 0.0, 0.0)",0,0,0,,-0.3476,-0.1377,0.1693,"(0.0, 0.0, 0.0, 0.0, 0.0, 0.0, 0.0, 0.0, 0.0)"
1666913725.2776327,0,1666913725,277076244,IMU1_Frame,0,0,0,,-0.015177329717021673,-0.0150812102875258,0.8700345908953516,0.4925261580916109,"(0.0, 0.0, 0.0, 0.0, 0.0, 0.0, 0.0, 0.0, 0.0)",-0.000606,0.000471,-0.000439,"(0.0, 0.0, 0.0, 0.0, 0.0, 0.0, 0.0, 0.0, 0.0)",0.152,0.42,-9.831,"(0.0, 0.0, 0.0, 0.0, 0.0, 0.0, 0.0, 0.0, 0.0)",0,0,0,,-0.3457,-0.1378,0.1624,"(0.0, 0.0, 0.0, 0.0, 0.0, 0.0, 0.0, 0.0, 0.0)"
1666913725.3031728,0,1666913725,302048683,IMU1_Frame,0,0,0,,-0.015184921176993086,-0.015076910377807428,0.8700346355901819,0.4925259767928667,"(0.0, 0.0, 0.0, 0.0, 0.0, 0.0, 0.0, 0.0, 0.0)",-2.4e-05,-0.000129,-0.001232,"(0.0, 0.0, 0.0, 0.0, 0.0, 0.0, 0.0, 0.0, 0.0)",0.125,0.422,-9.834,"(0.0, 0.0, 0.0, 0.0, 0.0, 0.0, 0.0, 0.0, 0.0)",0,0,0,,-0.3475,-0.1347,0.167,"(0.0, 0.0, 0.0, 0.0, 0.0, 0.0, 0.0, 0.0, 0.0)"
1666913725.327579,0,1666913725,326861381,IMU1_Frame,0,0,0,,-0.01519681073362042,-0.015080202951255043,0.870034548652287,0.4925256628581769,"(0.0, 0.0, 0.0, 0.0, 0.0, 0.0, 0.0, 0.0, 0.0)",0.001063,0.000688,-0.000425,"(0.0, 0.0, 0.0, 0.0, 0.0, 0.0, 0.0, 0.0, 0.0)",0.122,0.408,-9.836,"(0.0, 0.0, 0.0, 0.0, 0.0, 0.0, 0.0, 0.0, 0.0)",0,0,0,,-0.3494,-0.1356,0.168,"(0.0, 0.0, 0.0, 0.0, 0.0, 0.0, 0.0, 0.0, 0.0)"
1666913725.352659,0,1666913725,351892232,IMU1_Frame,0,0,0,,-0.015192118030582477,-0.015073008200826252,0.8700475742157702,0.49250301783316675,"(0.0, 0.0, 0.0, 0.0, 0.0, 0.0, 0.0, 0.0, 0.0)",0.00022,-0.000779,-0.000775,"(0.0, 0.0, 0.0, 0.0, 0.0, 0.0, 0.0, 0.0, 0.0)",0.135,0.407,-9.81,"(0.0, 0.0, 0.0, 0.0, 0.0, 0.0, 0.0, 0.0, 0.0)",0,0,0,,-0.3475,-0.1328,0.161,"(0.0, 0.0, 0.0, 0.0, 0.0, 0.0, 0.0, 0.0, 0.0)"
1666913725.3780487,0,1666913725,377247571,IMU1_Frame,0,0,0,,-0.015195017397895562,-0.015061513698971882,0.8700606436389153,0.49248019111636354,"(0.0, 0.0, 0.0, 0.0, 0.0, 0.0, 0.0, 0.0, 0.0)",0.00062,-0.000262,0.000945,"(0.0, 0.0, 0.0, 0.0, 0.0, 0.0, 0.0, 0.0, 0.0)",0.121,0.384,-9.819,"(0.0, 0.0, 0.0, 0.0, 0.0, 0.0, 0.0, 0.0, 0.0)",0,0,0,,-0.3476,-0.1417,0.1611,"(0.0, 0.0, 0.0, 0.0, 0.0, 0.0, 0.0, 0.0, 0.0)"
1666913725.4025114,0,1666913725,401783704,IMU1_Frame,0,0,0,,-0.01519058832607742,-0.01505405355040074,0.8700650727107334,0.4924727309677923,"(0.0, 0.0, 0.0, 0.0, 0.0, 0.0, 0.0, 0.0, 0.0)",0.000208,0.000363,-0.000797,"(0.0, 0.0, 0.0, 0.0, 0.0, 0.0, 0.0, 0.0, 0.0)",0.105,0.405,-9.841,"(0.0, 0.0, 0.0, 0.0, 0.0, 0.0, 0.0, 0.0, 0.0)",0,0,0,,-0.3495,-0.1435,0.1681,"(0.0, 0.0, 0.0, 0.0, 0.0, 0.0, 0.0, 0.0, 0.0)"
1666913725.4275951,0,1666913725,426803827,IMU1_Frame,0,0,0,,-0.01518325941812966,-0.015058088003873711,0.870056432828223,0.4924880976362143,"(0.0, 0.0, 0.0, 0.0, 0.0, 0.0, 0.0, 0.0, 0.0)",-0.000275,-0.001727,-0.001034,"(0.0, 0.0, 0.0, 0.0, 0.0, 0.0, 0.0, 0.0, 0.0)",0.094,0.413,-9.817,"(0.0, 0.0, 0.0, 0.0, 0.0, 0.0, 0.0, 0.0, 0.0)",0,0,0,,-0.3476,-0.1367,0.1646,"(0.0, 0.0, 0.0, 0.0, 0.0, 0.0, 0.0, 0.0, 0.0)"
1666913725.4524393,0,1666913725,451807022,IMU1_Frame,0,0,0,,-0.015171895499200371,-0.01505426531948543,0.8700393280749289,0.49251878165769297,"(0.0, 0.0, 0.0, 0.0, 0.0, 0.0, 0.0, 0.0, 0.0)",-0.000528,0.000165,-0.001368,"(0.0, 0.0, 0.0, 0.0, 0.0, 0.0, 0.0, 0.0, 0.0)",0.117,0.415,-9.858,"(0.0, 0.0, 0.0, 0.0, 0.0, 0.0, 0.0, 0.0, 0.0)",0,0,0,,-0.3494,-0.1347,0.1633,"(0.0, 0.0, 0.0, 0.0, 0.0, 0.0, 0.0, 0.0, 0.0)"
1666913725.477504,0,1666913725,476755619,IMU1_Frame,0,0,0,,-0.01516833907878092,-0.015066422428363813,0.870047747993054,0.492503645282973,"(0.0, 0.0, 0.0, 0.0, 0.0, 0.0, 0.0, 0.0, 0.0)",-6.8e-05,-1.3e-05,-4.4e-05,"(0.0, 0.0, 0.0, 0.0, 0.0, 0.0, 0.0, 0.0, 0.0)",0.111,0.434,-9.86,"(0.0, 0.0, 0.0, 0.0, 0.0, 0.0, 0.0, 0.0, 0.0)",0,0,0,,-0.3484,-0.1337,0.1692,"(0.0, 0.0, 0.0, 0.0, 0.0, 0.0, 0.0, 0.0, 0.0)"
1666913725.5024428,0,1666913725,501732587,IMU1_Frame,0,0,0,,-0.015168207598864416,-0.01506655479651962,0.870052045865019,0.49249605266529384,"(0.0, 0.0, 0.0, 0.0, 0.0, 0.0, 0.0, 0.0, 0.0)",-0.000131,-0.000603,-0.00225,"(0.0, 0.0, 0.0, 0.0, 0.0, 0.0, 0.0, 0.0, 0.0)",0.125,0.431,-9.892,"(0.0, 0.0, 0.0, 0.0, 0.0, 0.0, 0.0, 0.0, 0.0)",0,0,0,,-0.3504,-0.1366,0.1645,"(0.0, 0.0, 0.0, 0.0, 0.0, 0.0, 0.0, 0.0, 0.0)"
1666913725.52731,0,1666913725,526606321,IMU1_Frame,0,0,0,,-0.015168076117792794,-0.015066687163528035,0.8700563436707259,0.4924884600101092,"(0.0, 0.0, 0.0, 0.0, 0.0, 0.0, 0.0, 0.0, 0.0)",0.000408,-7.3e-05,-0.000147,"(0.0, 0.0, 0.0, 0.0, 0.0, 0.0, 0.0, 0.0, 0.0)",0.126,0.424,-9.89,"(0.0, 0.0, 0.0, 0.0, 0.0, 0.0, 0.0, 0.0, 0.0)",0,0,0,,-0.3523,-0.1356,0.1655,"(0.0, 0.0, 0.0, 0.0, 0.0, 0.0, 0.0, 0.0, 0.0)"
1666913725.5529754,0,1666913725,551921844,IMU1_Frame,0,0,0,,-0.015163252673837061,-0.015059623795560658,0.870073665684104,0.4924582213574179,"(0.0, 0.0, 0.0, 0.0, 0.0, 0.0, 0.0, 0.0, 0.0)",0.00116,-0.000153,-0.001302,"(0.0, 0.0, 0.0, 0.0, 0.0, 0.0, 0.0, 0.0, 0.0)",0.144,0.408,-9.831,"(0.0, 0.0, 0.0, 0.0, 0.0, 0.0, 0.0, 0.0, 0.0)",0,0,0,,-0.3495,-0.1396,0.1657,"(0.0, 0.0, 0.0, 0.0, 0.0, 0.0, 0.0, 0.0, 0.0)"
1666913725.5780451,0,1666913725,577393293,IMU1_Frame,0,0,0,,-0.015170975858156471,-0.015055192089752686,0.8700694127118941,0.49246563306065494,"(0.0, 0.0, 0.0, 0.0, 0.0, 0.0, 0.0, 0.0, 0.0)",0.001315,0.000919,-5.6e-05,"(0.0, 0.0, 0.0, 0.0, 0.0, 0.0, 0.0, 0.0, 0.0)",0.14,0.413,-9.856,"(0.0, 0.0, 0.0, 0.0, 0.0, 0.0, 0.0, 0.0, 0.0)",0,0,0,,-0.3485,-0.1367,0.1634,"(0.0, 0.0, 0.0, 0.0, 0.0, 0.0, 0.0, 0.0, 0.0)"
1666913725.6028187,0,1666913725,602155685,IMU1_Frame,0,0,0,,-0.015181730573056976,-0.01503913302135847,0.8700739304637539,0.49245781043875,"(0.0, 0.0, 0.0, 0.0, 0.0, 0.0, 0.0, 0.0, 0.0)",0.000303,0.001393,-0.001065,"(0.0, 0.0, 0.0, 0.0, 0.0, 0.0, 0.0, 0.0, 0.0)",0.121,0.41,-9.819,"(0.0, 0.0, 0.0, 0.0, 0.0, 0.0, 0.0, 0.0, 0.0)",0,0,0,,-0.3495,-0.1426,0.1611,"(0.0, 0.0, 0.0, 0.0, 0.0, 0.0, 0.0, 0.0, 0.0)"
1666913725.6286256,0,1666913725,627402305,IMU1_Frame,0,0,0,,-0.015193882414083093,-0.015042161349133581,0.8700652484214222,0.49247268229669605,"(0.0, 0.0, 0.0, 0.0, 0.0, 0.0, 0.0, 0.0, 0.0)",0.000853,-0.000654,-0.000102,"(0.0, 0.0, 0.0, 0.0, 0.0, 0.0, 0.0, 0.0, 0.0)",0.133,0.397,-9.817,"(0.0, 0.0, 0.0, 0.0, 0.0, 0.0, 0.0, 0.0, 0.0)",0,0,0,,-0.3494,-0.1327,0.1633,"(0.0, 0.0, 0.0, 0.0, 0.0, 0.0, 0.0, 0.0, 0.0)"
1666913725.6518927,0,1666913725,651417016,IMU1_Frame,0,0,0,,-0.015193882414083093,-0.015042161349133581,0.8700652484214222,0.49247268229669605,"(0.0, 0.0, 0.0, 0.0, 0.0, 0.0, 0.0, 0.0, 0.0)",5.2e-05,-0.000548,-0.001513,"(0.0, 0.0, 0.0, 0.0, 0.0, 0.0, 0.0, 0.0, 0.0)",0.124,0.412,-9.824,"(0.0, 0.0, 0.0, 0.0, 0.0, 0.0, 0.0, 0.0, 0.0)",0,0,0,,-0.3495,-0.1396,0.1634,"(0.0, 0.0, 0.0, 0.0, 0.0, 0.0, 0.0, 0.0, 0.0)"
1666913725.6781127,0,1666913725,677348136,IMU1_Frame,0,0,0,,-0.015186421994745833,-0.015046328273755136,0.8700609063794018,0.492480456244438,"(0.0, 0.0, 0.0, 0.0, 0.0, 0.0, 0.0, 0.0, 0.0)",0.000149,-0.000482,-0.000304,"(0.0, 0.0, 0.0, 0.0, 0.0, 0.0, 0.0, 0.0, 0.0)",0.132,0.412,-9.854,"(0.0, 0.0, 0.0, 0.0, 0.0, 0.0, 0.0, 0.0, 0.0)",0,0,0,,-0.3493,-0.1268,0.1679,"(0.0, 0.0, 0.0, 0.0, 0.0, 0.0, 0.0, 0.0, 0.0)"
1666913725.7029471,0,1666913725,702245473,IMU1_Frame,0,0,0,,-0.015186553298151932,-0.015046195746649511,0.8700566086435407,0.49248804893944026,"(0.0, 0.0, 0.0, 0.0, 0.0, 0.0, 0.0, 0.0, 0.0)",0.000665,-0.000572,0.0004,"(0.0, 0.0, 0.0, 0.0, 0.0, 0.0, 0.0, 0.0, 0.0)",0.113,0.416,-9.857,"(0.0, 0.0, 0.0, 0.0, 0.0, 0.0, 0.0, 0.0, 0.0)",0,0,0,,-0.3495,-0.1376,0.1669,"(0.0, 0.0, 0.0, 0.0, 0.0, 0.0, 0.0, 0.0, 0.0)"
1666913725.7280695,0,1666913725,727310895,IMU1_Frame,0,0,0,,-0.015181468088356811,-0.015039397990252515,0.8700825253414529,0.49244262470892286,"(0.0, 0.0, 0.0, 0.0, 0.0, 0.0, 0.0, 0.0, 0.0)",-0.000188,-0.000152,-0.000848,"(0.0, 0.0, 0.0, 0.0, 0.0, 0.0, 0.0, 0.0, 0.0)",0.099,0.403,-9.811,"(0.0, 0.0, 0.0, 0.0, 0.0, 0.0, 0.0, 0.0, 0.0)",0,0,0,,-0.3522,-0.1336,0.169,"(0.0, 0.0, 0.0, 0.0, 0.0, 0.0, 0.0, 0.0, 0.0)"
1666913725.752875,0,1666913725,752313613,IMU1_Frame,0,0,0,,-0.015181205599032105,-0.015039662954565302,0.8700911199541098,0.4924274388290889,"(0.0, 0.0, 0.0, 0.0, 0.0, 0.0, 0.0, 0.0, 0.0)",-0.001113,-7.2e-05,-0.000341,"(0.0, 0.0, 0.0, 0.0, 0.0, 0.0, 0.0, 0.0, 0.0)",0.116,0.38,-9.865,"(0.0, 0.0, 0.0, 0.0, 0.0, 0.0, 0.0, 0.0, 0.0)",0,0,0,,-0.3504,-0.1356,0.1609,"(0.0, 0.0, 0.0, 0.0, 0.0, 0.0, 0.0, 0.0, 0.0)"
1666913725.7779655,0,1666913725,777310132,IMU1_Frame,0,0,0,,-0.015169316405061087,-0.015036369029277517,0.8700912068126392,0.4924277523389029,"(0.0, 0.0, 0.0, 0.0, 0.0, 0.0, 0.0, 0.0, 0.0)",0.001522,0.000406,-4.8e-05,"(0.0, 0.0, 0.0, 0.0, 0.0, 0.0, 0.0, 0.0, 0.0)",0.115,0.41,-9.836,"(0.0, 0.0, 0.0, 0.0, 0.0, 0.0, 0.0, 0.0, 0.0)",0,0,0,,-0.3504,-0.1386,0.1692,"(0.0, 0.0, 0.0, 0.0, 0.0, 0.0, 0.0, 0.0, 0.0)"
1666913725.8029187,0,1666913725,802235126,IMU1_Frame,0,0,0,,-0.015169447621557034,-0.015036236651446705,0.8700869095367053,0.49243534529832833,"(0.0, 0.0, 0.0, 0.0, 0.0, 0.0, 0.0, 0.0, 0.0)",0.000777,-0.000466,-0.000588,"(0.0, 0.0, 0.0, 0.0, 0.0, 0.0, 0.0, 0.0, 0.0)",0.12,0.42,-9.854,"(0.0, 0.0, 0.0, 0.0, 0.0, 0.0, 0.0, 0.0, 0.0)",0,0,0,,-0.3503,-0.1327,0.1656,"(0.0, 0.0, 0.0, 0.0, 0.0, 0.0, 0.0, 0.0, 0.0)"
1666913725.8279567,0,1666913725,827216386,IMU1_Frame,0,0,0,,-0.015161461939091271,-0.01504093270055611,0.8700997567484622,0.4924127473183789,"(0.0, 0.0, 0.0, 0.0, 0.0, 0.0, 0.0, 0.0, 0.0)",0.000498,-0.001159,0.000281,"(0.0, 0.0, 0.0, 0.0, 0.0, 0.0, 0.0, 0.0, 0.0)",0.104,0.435,-9.862,"(0.0, 0.0, 0.0, 0.0, 0.0, 0.0, 0.0, 0.0, 0.0)",0,0,0,,-0.3503,-0.1267,0.1667,"(0.0, 0.0, 0.0, 0.0, 0.0, 0.0, 0.0, 0.0, 0.0)"
1666913725.8531914,0,1666913725,852245092,IMU1_Frame,0,0,0,,-0.01516172445058023,-0.015040668080835005,0.8700911623922195,0.49242793334895546,"(0.0, 0.0, 0.0, 0.0, 0.0, 0.0, 0.0, 0.0, 0.0)",-0.001174,-0.000267,-0.001023,"(0.0, 0.0, 0.0, 0.0, 0.0, 0.0, 0.0, 0.0, 0.0)",0.106,0.417,-9.818,"(0.0, 0.0, 0.0, 0.0, 0.0, 0.0, 0.0, 0.0, 0.0)",0,0,0,,-0.3494,-0.1317,0.1633,"(0.0, 0.0, 0.0, 0.0, 0.0, 0.0, 0.0, 0.0, 0.0)"
1666913725.878199,0,1666913725,877318143,IMU1_Frame,0,0,0,,-0.015153738613433106,-0.015045363860352188,0.8701040093452479,0.49240533522055807,"(0.0, 0.0, 0.0, 0.0, 0.0, 0.0, 0.0, 0.0, 0.0)",-0.000101,0.000535,-0.000816,"(0.0, 0.0, 0.0, 0.0, 0.0, 0.0, 0.0, 0.0, 0.0)",0.099,0.422,-9.833,"(0.0, 0.0, 0.0, 0.0, 0.0, 0.0, 0.0, 0.0, 0.0)",0,0,0,,-0.3495,-0.1406,0.1693,"(0.0, 0.0, 0.0, 0.0, 0.0, 0.0, 0.0, 0.0, 0.0)"
1666913725.9032493,0,1666913725,902562856,IMU1_Frame,0,0,0,,-0.015158692454755776,-0.015052295541272997,0.8700823919581637,0.49244316793550963,"(0.0, 0.0, 0.0, 0.0, 0.0, 0.0, 0.0, 0.0, 0.0)",-0.00031,-0.00046,-0.000578,"(0.0, 0.0, 0.0, 0.0, 0.0, 0.0, 0.0, 0.0, 0.0)",0.137,0.4,-9.815,"(0.0, 0.0, 0.0, 0.0, 0.0, 0.0, 0.0, 0.0, 0.0)",0,0,0,,-0.3532,-0.1345,0.1643,"(0.0, 0.0, 0.0, 0.0, 0.0, 0.0, 0.0, 0.0, 0.0)"
1666913725.928135,0,1666913725,927277088,IMU1_Frame,0,0,0,,-0.015173482363374137,-0.015044094421066601,0.8700953727709521,0.49242002694711384,"(0.0, 0.0, 0.0, 0.0, 0.0, 0.0, 0.0, 0.0, 0.0)",-0.000246,0.00052,-0.001308,"(0.0, 0.0, 0.0, 0.0, 0.0, 0.0, 0.0, 0.0, 0.0)",0.132,0.414,-9.822,"(0.0, 0.0, 0.0, 0.0, 0.0, 0.0, 0.0, 0.0, 0.0)",0,0,0,,-0.3485,-0.1347,0.1657,"(0.0, 0.0, 0.0, 0.0, 0.0, 0.0, 0.0, 0.0, 0.0)"
1666913725.9527912,0,1666913725,952127456,IMU1_Frame,0,0,0,,-0.01520081797184894,-0.015038525172528638,0.8700867800658806,0.4924345368150064,"(0.0, 0.0, 0.0, 0.0, 0.0, 0.0, 0.0, 0.0, 0.0)",-0.000462,0.000325,-0.000468,"(0.0, 0.0, 0.0, 0.0, 0.0, 0.0, 0.0, 0.0, 0.0)",0.151,0.405,-9.819,"(0.0, 0.0, 0.0, 0.0, 0.0, 0.0, 0.0, 0.0, 0.0)",0,0,0,,-0.3503,-0.1307,0.1679,"(0.0, 0.0, 0.0, 0.0, 0.0, 0.0, 0.0, 0.0, 0.0)"
1666913725.9783902,0,1666913725,977623224,IMU1_Frame,0,0,0,,-0.015200555497754833,-0.01503879047456073,0.8700953745373764,0.4924193508609149,"(0.0, 0.0, 0.0, 0.0, 0.0, 0.0, 0.0, 0.0, 0.0)",0.000302,-0.001298,-0.001194,"(0.0, 0.0, 0.0, 0.0, 0.0, 0.0, 0.0, 0.0, 0.0)",0.128,0.399,-9.871,"(0.0, 0.0, 0.0, 0.0, 0.0, 0.0, 0.0, 0.0, 0.0)",0,0,0,,-0.3503,-0.1267,0.1667,"(0.0, 0.0, 0.0, 0.0, 0.0, 0.0, 0.0, 0.0, 0.0)"
1666913726.0027883,0,1666913726,2306461,IMU1_Frame,0,0,0,,-0.015188141493652182,-0.015036026623108444,0.8701126496436835,0.49238929232001616,"(0.0, 0.0, 0.0, 0.0, 0.0, 0.0, 0.0, 0.0, 0.0)",0.000389,-0.000499,-0.000712,"(0.0, 0.0, 0.0, 0.0, 0.0, 0.0, 0.0, 0.0, 0.0)",0.097,0.391,-9.809,"(0.0, 0.0, 0.0, 0.0, 0.0, 0.0, 0.0, 0.0, 0.0)",0,0,0,,-0.3484,-0.1308,0.1633,"(0.0, 0.0, 0.0, 0.0, 0.0, 0.0, 0.0, 0.0, 0.0)"
1666913726.0276458,0,1666913726,27044296,IMU1_Frame,0,0,0,,-0.015187747846190846,-0.015036424242570118,0.8701255400670279,0.49236651265538034,"(0.0, 0.0, 0.0, 0.0, 0.0, 0.0, 0.0, 0.0, 0.0)",-0.000526,-7.2e-05,-0.000321,"(0.0, 0.0, 0.0, 0.0, 0.0, 0.0, 0.0, 0.0, 0.0)",0.094,0.395,-9.835,"(0.0, 0.0, 0.0, 0.0, 0.0, 0.0, 0.0, 0.0, 0.0)",0,0,0,,-0.3504,-0.1376,0.1657,"(0.0, 0.0, 0.0, 0.0, 0.0, 0.0, 0.0, 0.0, 0.0)"
1666913726.053026,0,1666913726,52302598,IMU1_Frame,0,0,0,,-0.015183844585897641,-0.015028433457236243,0.8701127808246376,0.49238942484280557,"(0.0, 0.0, 0.0, 0.0, 0.0, 0.0, 0.0, 0.0, 0.0)",0.00074,-0.000388,-0.001181,"(0.0, 0.0, 0.0, 0.0, 0.0, 0.0, 0.0, 0.0, 0.0)",0.099,0.394,-9.871,"(0.0, 0.0, 0.0, 0.0, 0.0, 0.0, 0.0, 0.0, 0.0)",0,0,0,,-0.3514,-0.1415,0.1598,"(0.0, 0.0, 0.0, 0.0, 0.0, 0.0, 0.0, 0.0, 0.0)"
1666913726.0786068,0,1666913726,77287673,IMU1_Frame,0,0,0,,-0.015176252446153397,-0.015032732179818084,0.8701127365446417,0.4923896059297915,"(0.0, 0.0, 0.0, 0.0, 0.0, 0.0, 0.0, 0.0, 0.0)",-0.000609,0.001128,-0.001694,"(0.0, 0.0, 0.0, 0.0, 0.0, 0.0, 0.0, 0.0, 0.0)",0.119,0.411,-9.849,"(0.0, 0.0, 0.0, 0.0, 0.0, 0.0, 0.0, 0.0, 0.0)",0,0,0,,-0.3495,-0.1376,0.1669,"(0.0, 0.0, 0.0, 0.0, 0.0, 0.0, 0.0, 0.0, 0.0)"
1666913726.1030753,0,1666913726,102390766,IMU1_Frame,0,0,0,,-0.015172957216168771,-0.015044624066353571,0.8701125609424021,0.4923896545889982,"(0.0, 0.0, 0.0, 0.0, 0.0, 0.0, 0.0, 0.0, 0.0)",0.0005,-0.000344,-0.000899,"(0.0, 0.0, 0.0, 0.0, 0.0, 0.0, 0.0, 0.0, 0.0)",0.11,0.427,-9.827,"(0.0, 0.0, 0.0, 0.0, 0.0, 0.0, 0.0, 0.0, 0.0)",0,0,0,,-0.3502,-0.1238,0.1702,"(0.0, 0.0, 0.0, 0.0, 0.0, 0.0, 0.0, 0.0, 0.0)"
1666913726.1278296,0,1666913726,127223014,IMU1_Frame,0,0,0,,-0.01516852908182636,-0.015037163272215257,0.8701169890767446,0.49238219379485987,"(0.0, 0.0, 0.0, 0.0, 0.0, 0.0, 0.0, 0.0, 0.0)",-0.000174,-0.000123,-0.000725,"(0.0, 0.0, 0.0, 0.0, 0.0, 0.0, 0.0, 0.0, 0.0)",0.116,0.4,-9.86,"(0.0, 0.0, 0.0, 0.0, 0.0, 0.0, 0.0, 0.0, 0.0)",0,0,0,,-0.3493,-0.1258,0.1644,"(0.0, 0.0, 0.0, 0.0, 0.0, 0.0, 0.0, 0.0, 0.0)"
1666913726.152468,0,1666913726,151936292,IMU1_Frame,0,0,0,,-0.01516462570404642,-0.015029173064652226,0.8701042294302798,0.49240510559069944,"(0.0, 0.0, 0.0, 0.0, 0.0, 0.0, 0.0, 0.0, 0.0)",-0.000232,0.000778,-0.000998,"(0.0, 0.0, 0.0, 0.0, 0.0, 0.0, 0.0, 0.0, 0.0)",0.141,0.403,-9.838,"(0.0, 0.0, 0.0, 0.0, 0.0, 0.0, 0.0, 0.0, 0.0)",0,0,0,,-0.3514,-0.1395,0.1633,"(0.0, 0.0, 0.0, 0.0, 0.0, 0.0, 0.0, 0.0, 0.0)"
1666913726.1778252,0,1666913726,177033424,IMU1_Frame,0,0,0,,-0.015169053968603574,-0.01503663378150388,0.8700998011657227,0.4924125663075511,"(0.0, 0.0, 0.0, 0.0, 0.0, 0.0, 0.0, 0.0, 0.0)",-0.000366,-0.000858,-3.1e-05,"(0.0, 0.0, 0.0, 0.0, 0.0, 0.0, 0.0, 0.0, 0.0)",0.122,0.417,-9.817,"(0.0, 0.0, 0.0, 0.0, 0.0, 0.0, 0.0, 0.0, 0.0)",0,0,0,,-0.3486,-0.1406,0.1634,"(0.0, 0.0, 0.0, 0.0, 0.0, 0.0, 0.0, 0.0, 0.0)"
1666913726.2029266,0,1666913726,202034235,IMU1_Frame,0,0,0,,-0.015181074352635578,-0.015039795435003691,0.8700954171610464,0.4924198458329211,"(0.0, 0.0, 0.0, 0.0, 0.0, 0.0, 0.0, 0.0, 0.0)",0.000853,0.000795,-0.001173,"(0.0, 0.0, 0.0, 0.0, 0.0, 0.0, 0.0, 0.0, 0.0)",0.118,0.453,-9.829,"(0.0, 0.0, 0.0, 0.0, 0.0, 0.0, 0.0, 0.0, 0.0)",0,0,0,,-0.3494,-0.1357,0.1633,"(0.0, 0.0, 0.0, 0.0, 0.0, 0.0, 0.0, 0.0, 0.0)"
1666913726.228352,0,1666913726,227461576,IMU1_Frame,0,0,0,,-0.015189059963912323,-0.015035098804287945,0.8700825696700281,0.49244244355839056,"(0.0, 0.0, 0.0, 0.0, 0.0, 0.0, 0.0, 0.0, 0.0)",-0.000599,-6.2e-05,-0.000183,"(0.0, 0.0, 0.0, 0.0, 0.0, 0.0, 0.0, 0.0, 0.0)",0.137,0.401,-9.856,"(0.0, 0.0, 0.0, 0.0, 0.0, 0.0, 0.0, 0.0, 0.0)",0,0,0,,-0.3476,-0.1377,0.1682,"(0.0, 0.0, 0.0, 0.0, 0.0, 0.0, 0.0, 0.0, 0.0)"
1666913726.252752,0,1666913726,252038955,IMU1_Frame,0,0,0,,-0.015192223365516202,-0.015023339291148685,0.8700870424051377,0.4924348020443269,"(0.0, 0.0, 0.0, 0.0, 0.0, 0.0, 0.0, 0.0, 0.0)",0.001074,0.000895,1.1e-05,"(0.0, 0.0, 0.0, 0.0, 0.0, 0.0, 0.0, 0.0, 0.0)",0.123,0.394,-9.833,"(0.0, 0.0, 0.0, 0.0, 0.0, 0.0, 0.0, 0.0, 0.0)",0,0,0,,-0.3514,-0.1395,0.1633,"(0.0, 0.0, 0.0, 0.0, 0.0, 0.0, 0.0, 0.0, 0.0)"
1666913726.2776058,0,1666913726,277039766,IMU1_Frame,0,0,0,,-0.01519169894279013,-0.015023869590632687,0.870104231092341,0.4924044299769869,"(0.0, 0.0, 0.0, 0.0, 0.0, 0.0, 0.0, 0.0, 0.0)",0.000218,-0.001176,-0.002061,"(0.0, 0.0, 0.0, 0.0, 0.0, 0.0, 0.0, 0.0, 0.0)",0.138,0.405,-9.836,"(0.0, 0.0, 0.0, 0.0, 0.0, 0.0, 0.0, 0.0, 0.0)",0,0,0,,-0.3495,-0.1386,0.1622,"(0.0, 0.0, 0.0, 0.0, 0.0, 0.0, 0.0, 0.0, 0.0)"
1666913726.3033564,0,1666913726,301975488,IMU1_Frame,0,0,0,,-0.015186877726749322,-0.015016806629414181,0.8701215497988398,0.49237418985892495,"(0.0, 0.0, 0.0, 0.0, 0.0, 0.0, 0.0, 0.0, 0.0)",-0.000714,0.000136,-0.001003,"(0.0, 0.0, 0.0, 0.0, 0.0, 0.0, 0.0, 0.0, 0.0)",0.11,0.409,-9.846,"(0.0, 0.0, 0.0, 0.0, 0.0, 0.0, 0.0, 0.0, 0.0)",0,0,0,,-0.3464,-0.118,0.1539,"(0.0, 0.0, 0.0, 0.0, 0.0, 0.0, 0.0, 0.0, 0.0)"
1666913726.3281054,0,1666913726,327036619,IMU1_Frame,0,0,0,,-0.015190518923977964,-0.015025062697538928,0.8701429017621763,0.4923360906318516,"(0.0, 0.0, 0.0, 0.0, 0.0, 0.0, 0.0, 0.0, 0.0)",0.000191,-0.002033,-0.000366,"(0.0, 0.0, 0.0, 0.0, 0.0, 0.0, 0.0, 0.0, 0.0)",0.132,0.423,-9.822,"(0.0, 0.0, 0.0, 0.0, 0.0, 0.0, 0.0, 0.0, 0.0)",0,0,0,,-0.3485,-0.1328,0.1504,"(0.0, 0.0, 0.0, 0.0, 0.0, 0.0, 0.0, 0.0, 0.0)"
1666913726.3523197,0,1666913726,351785182,IMU1_Frame,0,0,0,,-0.015185305087167904,-0.015018396913189,0.8701731063323597,0.49228306824372847,"(0.0, 0.0, 0.0, 0.0, 0.0, 0.0, 0.0, 0.0, 0.0)",-6e-05,-0.000919,0.000309,"(0.0, 0.0, 0.0, 0.0, 0.0, 0.0, 0.0, 0.0, 0.0)",0.123,0.391,-9.806,"(0.0, 0.0, 0.0, 0.0, 0.0, 0.0, 0.0, 0.0, 0.0)",0,0,0,,-0.3503,-0.1121,0.1206,"(0.0, 0.0, 0.0, 0.0, 0.0, 0.0, 0.0, 0.0, 0.0)"
1666913726.3779418,0,1666913726,377235651,IMU1_Frame,0,0,0,,-0.015160610739111515,-0.015012731255600556,0.8702033503719458,0.49223053824778557,"(0.0, 0.0, 0.0, 0.0, 0.0, 0.0, 0.0, 0.0, 0.0)",0.001241,-0.003794,-0.000707,"(0.0, 0.0, 0.0, 0.0, 0.0, 0.0, 0.0, 0.0, 0.0)",0.15,0.425,-9.843,"(0.0, 0.0, 0.0, 0.0, 0.0, 0.0, 0.0, 0.0, 0.0)",0,0,0,,-0.3494,-0.123,0.1244,"(0.0, 0.0, 0.0, 0.0, 0.0, 0.0, 0.0, 0.0, 0.0)"
1666913726.4022913,0,1666913726,401729106,IMU1_Frame,0,0,0,,-0.015167155847935522,-0.015009492827073471,0.8702377565472466,0.4921696044943995,"(0.0, 0.0, 0.0, 0.0, 0.0, 0.0, 0.0, 0.0, 0.0)",0.001602,0.000935,0.000564,"(0.0, 0.0, 0.0, 0.0, 0.0, 0.0, 0.0, 0.0, 0.0)",0.222,0.489,-9.828,"(0.0, 0.0, 0.0, 0.0, 0.0, 0.0, 0.0, 0.0, 0.0)",0,0,0,,-0.3512,-0.116,0.1336,"(0.0, 0.0, 0.0, 0.0, 0.0, 0.0, 0.0, 0.0, 0.0)"
1666913726.4270957,0,1666913726,426615238,IMU1_Frame,0,0,0,,-0.015158514418615349,-0.015014847929845306,0.8702720702377618,0.49210903014102936,"(0.0, 0.0, 0.0, 0.0, 0.0, 0.0, 0.0, 0.0, 0.0)",0.000968,-0.002892,-0.001038,"(0.0, 0.0, 0.0, 0.0, 0.0, 0.0, 0.0, 0.0, 0.0)",0.179,0.35,-9.684,"(0.0, 0.0, 0.0, 0.0, 0.0, 0.0, 0.0, 0.0, 0.0)",0,0,0,,-0.3503,-0.1219,0.1419,"(0.0, 0.0, 0.0, 0.0, 0.0, 0.0, 0.0, 0.0, 0.0)"
1666913726.4520702,0,1666913726,451580762,IMU1_Frame,0,0,0,,-0.015161760078183215,-0.015023501012925936,0.8703062927367126,0.4920481401972026,"(0.0, 0.0, 0.0, 0.0, 0.0, 0.0, 0.0, 0.0, 0.0)",-5.3e-05,0.000295,-0.000552,"(0.0, 0.0, 0.0, 0.0, 0.0, 0.0, 0.0, 0.0, 0.0)",0.201,0.446,-9.844,"(0.0, 0.0, 0.0, 0.0, 0.0, 0.0, 0.0, 0.0, 0.0)",0,0,0,,-0.3512,-0.1228,0.1466,"(0.0, 0.0, 0.0, 0.0, 0.0, 0.0, 0.0, 0.0, 0.0)"
1666913726.4770355,0,1666913726,476603507,IMU1_Frame,0,0,0,,-0.01516388092364886,-0.015012801429944142,0.8703451105872296,0.4919797363565508,"(0.0, 0.0, 0.0, 0.0, 0.0, 0.0, 0.0, 0.0, 0.0)",-0.000216,0.001856,0.000255,"(0.0, 0.0, 0.0, 0.0, 0.0, 0.0, 0.0, 0.0, 0.0)",0.056,0.467,-9.729,"(0.0, 0.0, 0.0, 0.0, 0.0, 0.0, 0.0, 0.0, 0.0)",0,0,0,,-0.3473,-0.1131,0.1443,"(0.0, 0.0, 0.0, 0.0, 0.0, 0.0, 0.0, 0.0, 0.0)"
1666913726.501991,0,1666913726,501548051,IMU1_Frame,0,0,0,,-0.015155238326232157,-0.01501815464732113,0.8703794110616546,0.49191915451853635,"(0.0, 0.0, 0.0, 0.0, 0.0, 0.0, 0.0, 0.0, 0.0)",0.000686,-0.001238,0.000758,"(0.0, 0.0, 0.0, 0.0, 0.0, 0.0, 0.0, 0.0, 0.0)",0.327,0.333,-9.945,"(0.0, 0.0, 0.0, 0.0, 0.0, 0.0, 0.0, 0.0, 0.0)",0,0,0,,-0.3482,-0.1101,0.1525,"(0.0, 0.0, 0.0, 0.0, 0.0, 0.0, 0.0, 0.0, 0.0)"
1666913726.5272574,0,1666913726,526813983,IMU1_Frame,0,0,0,,-0.015142564852605692,-0.015015646651547893,0.8704052536382328,0.49187389392433084,"(0.0, 0.0, 0.0, 0.0, 0.0, 0.0, 0.0, 0.0, 0.0)",0.000951,-0.00031,-0.001347,"(0.0, 0.0, 0.0, 0.0, 0.0, 0.0, 0.0, 0.0, 0.0)",0.108,0.358,-9.808,"(0.0, 0.0, 0.0, 0.0, 0.0, 0.0, 0.0, 0.0, 0.0)",0,0,0,,-0.3474,-0.121,0.1421,"(0.0, 0.0, 0.0, 0.0, 0.0, 0.0, 0.0, 0.0, 0.0)"
1666913726.5519943,0,1666913726,551524639,IMU1_Frame,0,0,0,,-0.015138213408278539,-0.015028593468443586,0.8704394155342372,0.49181317566488714,"(0.0, 0.0, 0.0, 0.0, 0.0, 0.0, 0.0, 0.0, 0.0)",-0.001561,-0.000575,0.000347,"(0.0, 0.0, 0.0, 0.0, 0.0, 0.0, 0.0, 0.0, 0.0)",0.212,0.421,-9.766,"(0.0, 0.0, 0.0, 0.0, 0.0, 0.0, 0.0, 0.0, 0.0)",0,0,0,,-0.3473,-0.1121,0.1502,"(0.0, 0.0, 0.0, 0.0, 0.0, 0.0, 0.0, 0.0, 0.0)"
1666913726.5769272,0,1666913726,576509714,IMU1_Frame,0,0,0,,-0.015133003919337541,-0.015021921901632762,0.8704695881915824,0.4917601347083104,"(0.0, 0.0, 0.0, 0.0, 0.0, 0.0, 0.0, 0.0, 0.0)",0.000377,0.000326,-0.000368,"(0.0, 0.0, 0.0, 0.0, 0.0, 0.0, 0.0, 0.0, 0.0)",0.11,0.462,-9.837,"(0.0, 0.0, 0.0, 0.0, 0.0, 0.0, 0.0, 0.0, 0.0)",0,0,0,,-0.3461,-0.0855,0.1276,"(0.0, 0.0, 0.0, 0.0, 0.0, 0.0, 0.0, 0.0, 0.0)"
1666913726.6018884,0,1666913726,601461172,IMU1_Frame,0,0,0,,-0.015132610641155845,-0.015022318077600953,0.8704824621434968,0.49173734569926086,"(0.0, 0.0, 0.0, 0.0, 0.0, 0.0, 0.0, 0.0, 0.0)",-0.000351,0.001159,-0.000502,"(0.0, 0.0, 0.0, 0.0, 0.0, 0.0, 0.0, 0.0, 0.0)",0.146,0.376,-9.801,"(0.0, 0.0, 0.0, 0.0, 0.0, 0.0, 0.0, 0.0, 0.0)",0,0,0,,-0.3479,-0.0707,0.1108,"(0.0, 0.0, 0.0, 0.0, 0.0, 0.0, 0.0, 0.0, 0.0)"
1666913726.6280212,0,1666913726,627563953,IMU1_Frame,0,0,0,,-0.015120199775870348,-0.01501954251022359,0.8704997134012323,0.49170727254118746,"(0.0, 0.0, 0.0, 0.0, 0.0, 0.0, 0.0, 0.0, 0.0)",0.000539,-0.001464,0.00033,"(0.0, 0.0, 0.0, 0.0, 0.0, 0.0, 0.0, 0.0, 0.0)",0.123,0.399,-9.821,"(0.0, 0.0, 0.0, 0.0, 0.0, 0.0, 0.0, 0.0, 0.0)",0,0,0,,-0.351,-0.0963,0.1228,"(0.0, 0.0, 0.0, 0.0, 0.0, 0.0, 0.0, 0.0, 0.0)"
1666913726.6518586,0,1666913726,651420593,IMU1_Frame,0,0,0,,-0.015108051207063407,-0.015016502410246008,0.8705083820438938,0.49169239188278097,"(0.0, 0.0, 0.0, 0.0, 0.0, 0.0, 0.0, 0.0, 0.0)",0.001897,0.00036,-0.000158,"(0.0, 0.0, 0.0, 0.0, 0.0, 0.0, 0.0, 0.0, 0.0)",0.139,0.393,-9.842,"(0.0, 0.0, 0.0, 0.0, 0.0, 0.0, 0.0, 0.0, 0.0)",0,0,0,,-0.3491,-0.0963,0.1264,"(0.0, 0.0, 0.0, 0.0, 0.0, 0.0, 0.0, 0.0, 0.0)"
1666913726.6778023,0,1666913726,677309036,IMU1_Frame,0,0,0,,-0.01510376038091551,-0.015008905790957882,0.8705085130544518,0.49169252370667726,"(0.0, 0.0, 0.0, 0.0, 0.0, 0.0, 0.0, 0.0, 0.0)",0.000839,0.000393,-1.4e-05,"(0.0, 0.0, 0.0, 0.0, 0.0, 0.0, 0.0, 0.0, 0.0)",0.124,0.399,-9.84,"(0.0, 0.0, 0.0, 0.0, 0.0, 0.0, 0.0, 0.0, 0.0)",0,0,0,,-0.3492,-0.1071,0.1348,"(0.0, 0.0, 0.0, 0.0, 0.0, 0.0, 0.0, 0.0, 0.0)"
1666913726.7027283,0,1666913726,702205419,IMU1_Frame,0,0,0,,-0.015095178725169387,-0.014993712548953222,0.8705087748766889,0.49169278724213633,"(0.0, 0.0, 0.0, 0.0, 0.0, 0.0, 0.0, 0.0, 0.0)",0.000794,9.4e-05,-0.000132,"(0.0, 0.0, 0.0, 0.0, 0.0, 0.0, 0.0, 0.0, 0.0)",0.129,0.401,-9.871,"(0.0, 0.0, 0.0, 0.0, 0.0, 0.0, 0.0, 0.0, 0.0)",0,0,0,,-0.3482,-0.1072,0.1348,"(0.0, 0.0, 0.0, 0.0, 0.0, 0.0, 0.0, 0.0, 0.0)"
1666913726.7286482,0,1666913726,727470159,IMU1_Frame,0,0,0,,-0.015087713998392416,-0.014997873507965161,0.8705044398840271,0.491700564183872,"(0.0, 0.0, 0.0, 0.0, 0.0, 0.0, 0.0, 0.0, 0.0)",-0.000973,-0.000928,-0.00106,"(0.0, 0.0, 0.0, 0.0, 0.0, 0.0, 0.0, 0.0, 0.0)",0.127,0.372,-9.854,"(0.0, 0.0, 0.0, 0.0, 0.0, 0.0, 0.0, 0.0, 0.0)",0,0,0,,-0.3491,-0.1032,0.1406,"(0.0, 0.0, 0.0, 0.0, 0.0, 0.0, 0.0, 0.0, 0.0)"
1666913726.7534325,0,1666913726,752386569,IMU1_Frame,0,0,0,,-0.01508784487895467,-0.014997741842251153,0.8705001489539915,0.4917081607494637,"(0.0, 0.0, 0.0, 0.0, 0.0, 0.0, 0.0, 0.0, 0.0)",0.000347,6.7e-05,-0.001999,"(0.0, 0.0, 0.0, 0.0, 0.0, 0.0, 0.0, 0.0, 0.0)",0.111,0.424,-9.815,"(0.0, 0.0, 0.0, 0.0, 0.0, 0.0, 0.0, 0.0, 0.0)",0,0,0,,-0.3482,-0.1052,0.1407,"(0.0, 0.0, 0.0, 0.0, 0.0, 0.0, 0.0, 0.0, 0.0)"
1666913726.7778187,0,1666913726,777270078,IMU1_Frame,0,0,0,,-0.015084671291587266,-0.015009499505153878,0.8704956828082846,0.4917158059578397,"(0.0, 0.0, 0.0, 0.0, 0.0, 0.0, 0.0, 0.0, 0.0)",0.00048,-0.000311,-0.000298,"(0.0, 0.0, 0.0, 0.0, 0.0, 0.0, 0.0, 0.0, 0.0)",0.131,0.418,-9.8,"(0.0, 0.0, 0.0, 0.0, 0.0, 0.0, 0.0, 0.0, 0.0)",0,0,0,,-0.3491,-0.1051,0.1406,"(0.0, 0.0, 0.0, 0.0, 0.0, 0.0, 0.0, 0.0, 0.0)"
1666913726.8028755,0,1666913726,802228689,IMU1_Frame,0,0,0,,-0.015084671291587266,-0.015009499505153878,0.8704956828082846,0.4917158059578397,"(0.0, 0.0, 0.0, 0.0, 0.0, 0.0, 0.0, 0.0, 0.0)",-0.000226,-0.000546,-0.001649,"(0.0, 0.0, 0.0, 0.0, 0.0, 0.0, 0.0, 0.0, 0.0)",0.141,0.39,-9.854,"(0.0, 0.0, 0.0, 0.0, 0.0, 0.0, 0.0, 0.0, 0.0)",0,0,0,,-0.3502,-0.111,0.1406,"(0.0, 0.0, 0.0, 0.0, 0.0, 0.0, 0.0, 0.0, 0.0)"
1666913726.8279955,0,1666913726,827250480,IMU1_Frame,0,0,0,,-0.015077206814238742,-0.01501366075203894,0.87049134743998,0.4917235827755584,"(0.0, 0.0, 0.0, 0.0, 0.0, 0.0, 0.0, 0.0, 0.0)",-0.000546,-0.000188,-0.000399,"(0.0, 0.0, 0.0, 0.0, 0.0, 0.0, 0.0, 0.0, 0.0)",0.128,0.419,-9.815,"(0.0, 0.0, 0.0, 0.0, 0.0, 0.0, 0.0, 0.0, 0.0)",0,0,0,,-0.3493,-0.113,0.1372,"(0.0, 0.0, 0.0, 0.0, 0.0, 0.0, 0.0, 0.0, 0.0)"
1666913726.8531306,0,1666913726,852499723,IMU1_Frame,0,0,0,,-0.01508149791142916,-0.015021257221528642,0.8704912163879277,0.4917234511833845,"(0.0, 0.0, 0.0, 0.0, 0.0, 0.0, 0.0, 0.0, 0.0)",-0.000132,-0.000478,-0.000199,"(0.0, 0.0, 0.0, 0.0, 0.0, 0.0, 0.0, 0.0, 0.0)",0.115,0.428,-9.853,"(0.0, 0.0, 0.0, 0.0, 0.0, 0.0, 0.0, 0.0, 0.0)",0,0,0,,-0.3492,-0.1071,0.1336,"(0.0, 0.0, 0.0, 0.0, 0.0, 0.0, 0.0, 0.0, 0.0)"
1666913726.878093,0,1666913726,877273082,IMU1_Frame,0,0,0,,-0.015081628996053049,-0.015021125610059336,0.8704869252581657,0.49173104763357867,"(0.0, 0.0, 0.0, 0.0, 0.0, 0.0, 0.0, 0.0, 0.0)",0.000332,0.000725,-0.001268,"(0.0, 0.0, 0.0, 0.0, 0.0, 0.0, 0.0, 0.0, 0.0)",0.117,0.433,-9.836,"(0.0, 0.0, 0.0, 0.0, 0.0, 0.0, 0.0, 0.0, 0.0)",0,0,0,,-0.3465,-0.1161,0.1385,"(0.0, 0.0, 0.0, 0.0, 0.0, 0.0, 0.0, 0.0, 0.0)"
1666913726.9032931,0,1666913726,902482032,IMU1_Frame,0,0,0,,-0.01508592015838647,-0.01502872204095793,0.8704867941409704,0.4917309160028136,"(0.0, 0.0, 0.0, 0.0, 0.0, 0.0, 0.0, 0.0, 0.0)",-2.6e-05,0.000893,0.000714,"(0.0, 0.0, 0.0, 0.0, 0.0, 0.0, 0.0, 0.0, 0.0)",0.118,0.427,-9.844,"(0.0, 0.0, 0.0, 0.0, 0.0, 0.0, 0.0, 0.0, 0.0)",0,0,0,,-0.3502,-0.113,0.1442,"(0.0, 0.0, 0.0, 0.0, 0.0, 0.0, 0.0, 0.0, 0.0)"
1666913726.9281955,0,1666913726,927205801,IMU1_Frame,0,0,0,,-0.01509364668944527,-0.015024297373058923,0.8704825473293999,0.491738331954078,"(0.0, 0.0, 0.0, 0.0, 0.0, 0.0, 0.0, 0.0, 0.0)",-4.9e-05,-0.000769,-0.000249,"(0.0, 0.0, 0.0, 0.0, 0.0, 0.0, 0.0, 0.0, 0.0)",0.093,0.404,-9.84,"(0.0, 0.0, 0.0, 0.0, 0.0, 0.0, 0.0, 0.0, 0.0)",0,0,0,,-0.3472,-0.1013,0.1348,"(0.0, 0.0, 0.0, 0.0, 0.0, 0.0, 0.0, 0.0, 0.0)"
1666913726.952473,0,1666913726,951993703,IMU1_Frame,0,0,0,,-0.015081760079528406,-0.015020993997446101,0.8704826340621123,0.49173864404632556,"(0.0, 0.0, 0.0, 0.0, 0.0, 0.0, 0.0, 0.0, 0.0)",0.001094,-0.000512,0.000227,"(0.0, 0.0, 0.0, 0.0, 0.0, 0.0, 0.0, 0.0, 0.0)",0.145,0.39,-9.826,"(0.0, 0.0, 0.0, 0.0, 0.0, 0.0, 0.0, 0.0, 0.0)",0,0,0,,-0.3491,-0.0982,0.1382,"(0.0, 0.0, 0.0, 0.0, 0.0, 0.0, 0.0, 0.0, 0.0)"
1666913726.9777002,0,1666913726,976970195,IMU1_Frame,0,0,0,,-0.015073308568578893,-0.015005669668252758,0.8704786048306917,0.49174650357538524,"(0.0, 0.0, 0.0, 0.0, 0.0, 0.0, 0.0, 0.0, 0.0)",0.001836,0.000576,-0.000856,"(0.0, 0.0, 0.0, 0.0, 0.0, 0.0, 0.0, 0.0, 0.0)",0.125,0.409,-9.809,"(0.0, 0.0, 0.0, 0.0, 0.0, 0.0, 0.0, 0.0, 0.0)",0,0,0,,-0.3492,-0.1111,0.143,"(0.0, 0.0, 0.0, 0.0, 0.0, 0.0, 0.0, 0.0, 0.0)"
1666913727.0026011,0,1666913727,1938104,IMU1_Frame,0,0,0,,-0.015069017270218718,-0.014998073308820251,0.8704787357467174,0.4917466350960928,"(0.0, 0.0, 0.0, 0.0, 0.0, 0.0, 0.0, 0.0, 0.0)",-0.000126,-0.001479,-0.00077,"(0.0, 0.0, 0.0, 0.0, 0.0, 0.0, 0.0, 0.0, 0.0)",0.131,0.386,-9.831,"(0.0, 0.0, 0.0, 0.0, 0.0, 0.0, 0.0, 0.0, 0.0)",0,0,0,,-0.3472,-0.1022,0.1419,"(0.0, 0.0, 0.0, 0.0, 0.0, 0.0, 0.0, 0.0, 0.0)"
1666913727.0284674,0,1666913727,27195215,IMU1_Frame,0,0,0,,-0.015069148152525278,-0.014997941806265964,0.8704744444146381,0.49175423143737207,"(0.0, 0.0, 0.0, 0.0, 0.0, 0.0, 0.0, 0.0, 0.0)",0.000474,0.000266,-1.6e-05,"(0.0, 0.0, 0.0, 0.0, 0.0, 0.0, 0.0, 0.0, 0.0)",0.138,0.411,-9.849,"(0.0, 0.0, 0.0, 0.0, 0.0, 0.0, 0.0, 0.0, 0.0)",0,0,0,,-0.3482,-0.1062,0.1383,"(0.0, 0.0, 0.0, 0.0, 0.0, 0.0, 0.0, 0.0, 0.0)"
1666913727.0532935,0,1666913727,52184581,IMU1_Frame,0,0,0,,-0.015064856786726942,-0.014990345483140228,0.8704745752632257,0.4917543629217728,"(0.0, 0.0, 0.0, 0.0, 0.0, 0.0, 0.0, 0.0, 0.0)",0.000405,5.1e-05,0.000105,"(0.0, 0.0, 0.0, 0.0, 0.0, 0.0, 0.0, 0.0, 0.0)",0.129,0.397,-9.85,"(0.0, 0.0, 0.0, 0.0, 0.0, 0.0, 0.0, 0.0, 0.0)",0,0,0,,-0.3475,-0.1328,0.1552,"(0.0, 0.0, 0.0, 0.0, 0.0, 0.0, 0.0, 0.0, 0.0)"
1666913727.0777102,0,1666913727,77042102,IMU1_Frame,0,0,0,,-0.0150606961683598,-0.014982617730075514,0.8704704146448584,0.4917620906748376,"(0.0, 0.0, 0.0, 0.0, 0.0, 0.0, 0.0, 0.0, 0.0)",0.001209,-0.000722,-0.00017,"(0.0, 0.0, 0.0, 0.0, 0.0, 0.0, 0.0, 0.0, 0.0)",0.1,0.375,-9.825,"(0.0, 0.0, 0.0, 0.0, 0.0, 0.0, 0.0, 0.0, 0.0)",0,0,0,,-0.3474,-0.1209,0.1574,"(0.0, 0.0, 0.0, 0.0, 0.0, 0.0, 0.0, 0.0, 0.0)"
1666913727.10334,0,1666913727,102396011,IMU1_Frame,0,0,0,,-0.015060826915791307,-0.014982486300137134,0.8704661231779041,0.49176968694350087,"(0.0, 0.0, 0.0, 0.0, 0.0, 0.0, 0.0, 0.0, 0.0)",0.00042,-0.0001,-0.000679,"(0.0, 0.0, 0.0, 0.0, 0.0, 0.0, 0.0, 0.0, 0.0)",0.122,0.414,-9.83,"(0.0, 0.0, 0.0, 0.0, 0.0, 0.0, 0.0, 0.0, 0.0)",0,0,0,,-0.3475,-0.1269,0.148,"(0.0, 0.0, 0.0, 0.0, 0.0, 0.0, 0.0, 0.0, 0.0)"
1666913727.1276968,0,1666913727,126914024,IMU1_Frame,0,0,0,,-0.015053231673772951,-0.014986779584278739,0.8704660789467767,0.49176986696715375,"(0.0, 0.0, 0.0, 0.0, 0.0, 0.0, 0.0, 0.0, 0.0)",-0.001761,-0.001292,7.4e-05,"(0.0, 0.0, 0.0, 0.0, 0.0, 0.0, 0.0, 0.0, 0.0)",0.122,0.424,-9.863,"(0.0, 0.0, 0.0, 0.0, 0.0, 0.0, 0.0, 0.0, 0.0)",0,0,0,,-0.3494,-0.1268,0.1538,"(0.0, 0.0, 0.0, 0.0, 0.0, 0.0, 0.0, 0.0, 0.0)"
1666913727.1523926,0,1666913727,151906967,IMU1_Frame,0,0,0,,-0.015062076506333497,-0.015001709200557581,0.870457234114216,0.49178479658343244,"(0.0, 0.0, 0.0, 0.0, 0.0, 0.0, 0.0, 0.0, 0.0)",-0.00135,0.000375,-0.002358,"(0.0, 0.0, 0.0, 0.0, 0.0, 0.0, 0.0, 0.0, 0.0)",0.106,0.415,-9.839,"(0.0, 0.0, 0.0, 0.0, 0.0, 0.0, 0.0, 0.0, 0.0)",0,0,0,,-0.3494,-0.1258,0.1467,"(0.0, 0.0, 0.0, 0.0, 0.0, 0.0, 0.0, 0.0, 0.0)"
1666913727.1775582,0,1666913727,176953077,IMU1_Frame,0,0,0,,-0.015046886175008732,-0.015010296028990407,0.8704571452969414,0.49178515678196083,"(0.0, 0.0, 0.0, 0.0, 0.0, 0.0, 0.0, 0.0, 0.0)",1.1e-05,-9.8e-05,-0.000892,"(0.0, 0.0, 0.0, 0.0, 0.0, 0.0, 0.0, 0.0, 0.0)",0.121,0.421,-9.831,"(0.0, 0.0, 0.0, 0.0, 0.0, 0.0, 0.0, 0.0, 0.0)",0,0,0,,-0.3494,-0.1268,0.1444,"(0.0, 0.0, 0.0, 0.0, 0.0, 0.0, 0.0, 0.0, 0.0)"
1666913727.20276,0,1666913727,201968669,IMU1_Frame,0,0,0,,-0.015051308864794565,-0.015017760853133852,0.8704527226071557,0.4917926216061043,"(0.0, 0.0, 0.0, 0.0, 0.0, 0.0, 0.0, 0.0, 0.0)",-0.000141,-0.000673,-0.000305,"(0.0, 0.0, 0.0, 0.0, 0.0, 0.0, 0.0, 0.0, 0.0)",0.131,0.444,-9.841,"(0.0, 0.0, 0.0, 0.0, 0.0, 0.0, 0.0, 0.0, 0.0)",0,0,0,,-0.3483,-0.117,0.1467,"(0.0, 0.0, 0.0, 0.0, 0.0, 0.0, 0.0, 0.0, 0.0)"
1666913727.2277539,0,1666913727,227006912,IMU1_Frame,0,0,0,,-0.015043713736451907,-0.01502205433152737,0.8704526780600458,0.49179280171508266,"(0.0, 0.0, 0.0, 0.0, 0.0, 0.0, 0.0, 0.0, 0.0)",0.000379,-0.000451,-0.000852,"(0.0, 0.0, 0.0, 0.0, 0.0, 0.0, 0.0, 0.0, 0.0)",0.123,0.417,-9.833,"(0.0, 0.0, 0.0, 0.0, 0.0, 0.0, 0.0, 0.0, 0.0)",0,0,0,,-0.3483,-0.1209,0.1526,"(0.0, 0.0, 0.0, 0.0, 0.0, 0.0, 0.0, 0.0, 0.0)"
1666913727.2527215,0,1666913727,251989603,IMU1_Frame,0,0,0,,-0.015040541505114163,-0.015033812687509956,0.8704482105484965,0.491800446665342,"(0.0, 0.0, 0.0, 0.0, 0.0, 0.0, 0.0, 0.0, 0.0)",-0.000932,-1.6e-05,-1e-05,"(0.0, 0.0, 0.0, 0.0, 0.0, 0.0, 0.0, 0.0, 0.0)",0.096,0.421,-9.854,"(0.0, 0.0, 0.0, 0.0, 0.0, 0.0, 0.0, 0.0, 0.0)",0,0,0,,-0.3522,-0.1267,0.1454,"(0.0, 0.0, 0.0, 0.0, 0.0, 0.0, 0.0, 0.0, 0.0)"
1666913727.2778764,0,1666913727,277163028,IMU1_Frame,0,0,0,,-0.015052559584958613,-0.015036983880018227,0.8704438322115391,0.4918077312635734,"(0.0, 0.0, 0.0, 0.0, 0.0, 0.0, 0.0, 0.0, 0.0)",0.000267,2.3e-05,-0.000848,"(0.0, 0.0, 0.0, 0.0, 0.0, 0.0, 0.0, 0.0, 0.0)",0.135,0.431,-9.869,"(0.0, 0.0, 0.0, 0.0, 0.0, 0.0, 0.0, 0.0, 0.0)",0,0,0,,-0.3494,-0.1278,0.1468,"(0.0, 0.0, 0.0, 0.0, 0.0, 0.0, 0.0, 0.0, 0.0)"
1666913727.302856,0,1666913727,301915168,IMU1_Frame,0,0,0,,-0.015055862804120992,-0.015025094213468948,0.8704440079885563,0.49180768242872946,"(0.0, 0.0, 0.0, 0.0, 0.0, 0.0, 0.0, 0.0, 0.0)",0.000225,0.00041,-0.000561,"(0.0, 0.0, 0.0, 0.0, 0.0, 0.0, 0.0, 0.0, 0.0)",0.112,0.407,-9.857,"(0.0, 0.0, 0.0, 0.0, 0.0, 0.0, 0.0, 0.0, 0.0)",0,0,0,,-0.3483,-0.117,0.1537,"(0.0, 0.0, 0.0, 0.0, 0.0, 0.0, 0.0, 0.0, 0.0)"
1666913727.3271637,0,1666913727,326684236,IMU1_Frame,0,0,0,,-0.01505929703848707,-0.015013073127267072,0.8704398916936689,0.49181522969128977,"(0.0, 0.0, 0.0, 0.0, 0.0, 0.0, 0.0, 0.0, 0.0)",0.000746,0.000647,-0.001376,"(0.0, 0.0, 0.0, 0.0, 0.0, 0.0, 0.0, 0.0, 0.0)",0.125,0.388,-9.869,"(0.0, 0.0, 0.0, 0.0, 0.0, 0.0, 0.0, 0.0, 0.0)",0,0,0,,-0.3503,-0.1209,0.149,"(0.0, 0.0, 0.0, 0.0, 0.0, 0.0, 0.0, 0.0, 0.0)"
1666913727.3526232,0,1666913727,351895093,IMU1_Frame,0,0,0,,-0.015062600155595005,-0.015001183425763679,0.8704400670560833,0.4918151809732802,"(0.0, 0.0, 0.0, 0.0, 0.0, 0.0, 0.0, 0.0, 0.0)",0.000411,0.00041,-0.00083,"(0.0, 0.0, 0.0, 0.0, 0.0, 0.0, 0.0, 0.0, 0.0)",0.134,0.415,-9.857,"(0.0, 0.0, 0.0, 0.0, 0.0, 0.0, 0.0, 0.0, 0.0)",0,0,0,,-0.3474,-0.122,0.1503,"(0.0, 0.0, 0.0, 0.0, 0.0, 0.0, 0.0, 0.0, 0.0)"
1666913727.3780282,0,1666913727,377291202,IMU1_Frame,0,0,0,,-0.015058439101071927,-0.014993455993536514,0.8704359060015604,0.49182290840550724,"(0.0, 0.0, 0.0, 0.0, 0.0, 0.0, 0.0, 0.0, 0.0)",0.00059,-0.001536,0.000366,"(0.0, 0.0, 0.0, 0.0, 0.0, 0.0, 0.0, 0.0, 0.0)",0.147,0.383,-9.817,"(0.0, 0.0, 0.0, 0.0, 0.0, 0.0, 0.0, 0.0, 0.0)",0,0,0,,-0.3493,-0.1229,0.1479,"(0.0, 0.0, 0.0, 0.0, 0.0, 0.0, 0.0, 0.0, 0.0)"
1666913727.4028833,0,1666913727,402179479,IMU1_Frame,0,0,0,,-0.015066034079243042,-0.014989162245822238,0.8704359502811547,0.491822728318278,"(0.0, 0.0, 0.0, 0.0, 0.0, 0.0, 0.0, 0.0, 0.0)",-0.000394,-0.000779,-0.00041,"(0.0, 0.0, 0.0, 0.0, 0.0, 0.0, 0.0, 0.0, 0.0)",0.118,0.393,-9.812,"(0.0, 0.0, 0.0, 0.0, 0.0, 0.0, 0.0, 0.0, 0.0)",0,0,0,,-0.3483,-0.118,0.1479,"(0.0, 0.0, 0.0, 0.0, 0.0, 0.0, 0.0, 0.0, 0.0)"
1666913727.427124,0,1666913727,426630496,IMU1_Frame,0,0,0,,-0.015066164883786022,-0.01498903076930154,0.8704316582850384,0.49183032428618084,"(0.0, 0.0, 0.0, 0.0, 0.0, 0.0, 0.0, 0.0, 0.0)",-0.00055,-0.001947,-0.000158,"(0.0, 0.0, 0.0, 0.0, 0.0, 0.0, 0.0, 0.0, 0.0)",0.11,0.389,-9.779,"(0.0, 0.0, 0.0, 0.0, 0.0, 0.0, 0.0, 0.0, 0.0)",0,0,0,,-0.3493,-0.1199,0.1526,"(0.0, 0.0, 0.0, 0.0, 0.0, 0.0, 0.0, 0.0, 0.0)"
1666913727.4524078,0,1666913727,451698064,IMU1_Frame,0,0,0,,-0.015066164883786022,-0.01498903076930154,0.8704316582850384,0.49183032428618084,"(0.0, 0.0, 0.0, 0.0, 0.0, 0.0, 0.0, 0.0, 0.0)",7.9e-05,-0.000364,5.2e-05,"(0.0, 0.0, 0.0, 0.0, 0.0, 0.0, 0.0, 0.0, 0.0)",0.13,0.425,-9.844,"(0.0, 0.0, 0.0, 0.0, 0.0, 0.0, 0.0, 0.0, 0.0)",0,0,0,,-0.3512,-0.1228,0.1548,"(0.0, 0.0, 0.0, 0.0, 0.0, 0.0, 0.0, 0.0, 0.0)"
1666913727.477711,0,1666913727,477088212,IMU1_Frame,0,0,0,,-0.015078051850453546,-0.014992332903157768,0.8704315717002747,0.49183001259978565,"(0.0, 0.0, 0.0, 0.0, 0.0, 0.0, 0.0, 0.0, 0.0)",-0.000562,-0.000429,-0.000824,"(0.0, 0.0, 0.0, 0.0, 0.0, 0.0, 0.0, 0.0, 0.0)",0.124,0.409,-9.823,"(0.0, 0.0, 0.0, 0.0, 0.0, 0.0, 0.0, 0.0, 0.0)",0,0,0,,-0.3466,-0.1299,0.1411,"(0.0, 0.0, 0.0, 0.0, 0.0, 0.0, 0.0, 0.0, 0.0)"
1666913727.503133,0,1666913727,502439975,IMU1_Frame,0,0,0,,-0.015082474774918067,-0.014999797232155613,0.8704271487758103,0.4918374769287833,"(0.0, 0.0, 0.0, 0.0, 0.0, 0.0, 0.0, 0.0, 0.0)",0.001326,-0.000626,0.000134,"(0.0, 0.0, 0.0, 0.0, 0.0, 0.0, 0.0, 0.0, 0.0)",0.133,0.44,-9.845,"(0.0, 0.0, 0.0, 0.0, 0.0, 0.0, 0.0, 0.0, 0.0)",0,0,0,,-0.3483,-0.116,0.1537,"(0.0, 0.0, 0.0, 0.0, 0.0, 0.0, 0.0, 0.0, 0.0)"
1666913727.5280707,0,1666913727,527403354,IMU1_Frame,0,0,0,,-0.01509006967270712,-0.014995503350373224,0.8704271930009165,0.49183729663485976,"(0.0, 0.0, 0.0, 0.0, 0.0, 0.0, 0.0, 0.0, 0.0)",0.000319,-0.000836,-0.00029,"(0.0, 0.0, 0.0, 0.0, 0.0, 0.0, 0.0, 0.0, 0.0)",0.136,0.431,-9.775,"(0.0, 0.0, 0.0, 0.0, 0.0, 0.0, 0.0, 0.0, 0.0)",0,0,0,,-0.3493,-0.1219,0.1502,"(0.0, 0.0, 0.0, 0.0, 0.0, 0.0, 0.0, 0.0, 0.0)"
1666913727.5528305,0,1666913727,551960468,IMU1_Frame,0,0,0,,-0.01509006967270712,-0.014995503350373224,0.8704271930009165,0.49183729663485976,"(0.0, 0.0, 0.0, 0.0, 0.0, 0.0, 0.0, 0.0, 0.0)",-0.000645,-0.001224,-0.00114,"(0.0, 0.0, 0.0, 0.0, 0.0, 0.0, 0.0, 0.0, 0.0)",0.137,0.405,-9.868,"(0.0, 0.0, 0.0, 0.0, 0.0, 0.0, 0.0, 0.0, 0.0)",0,0,0,,-0.3474,-0.121,0.1515,"(0.0, 0.0, 0.0, 0.0, 0.0, 0.0, 0.0, 0.0, 0.0)"
1666913727.5782204,0,1666913727,577416419,IMU1_Frame,0,0,0,,-0.015094492688402964,-0.015002967536283622,0.8704227699852206,0.49184476082077017,"(0.0, 0.0, 0.0, 0.0, 0.0, 0.0, 0.0, 0.0, 0.0)",0.000108,-0.000117,0.000664,"(0.0, 0.0, 0.0, 0.0, 0.0, 0.0, 0.0, 0.0, 0.0)",0.151,0.405,-9.823,"(0.0, 0.0, 0.0, 0.0, 0.0, 0.0, 0.0, 0.0, 0.0)",0,0,0,,-0.3465,-0.123,0.1504,"(0.0, 0.0, 0.0, 0.0, 0.0, 0.0, 0.0, 0.0, 0.0)"
1666913727.6026495,0,1666913727,601994037,IMU1_Frame,0,0,0,,-0.015094623613418748,-0.015002835811414187,0.8704184777968349,0.4918523566736524,"(0.0, 0.0, 0.0, 0.0, 0.0, 0.0, 0.0, 0.0, 0.0)",0.000557,-0.001369,-0.000456,"(0.0, 0.0, 0.0, 0.0, 0.0, 0.0, 0.0, 0.0, 0.0)",0.129,0.427,-9.856,"(0.0, 0.0, 0.0, 0.0, 0.0, 0.0, 0.0, 0.0, 0.0)",0,0,0,,-0.3513,-0.1258,0.1513,"(0.0, 0.0, 0.0, 0.0, 0.0, 0.0, 0.0, 0.0, 0.0)"
1666913727.6283665,0,1666913727,627353668,IMU1_Frame,0,0,0,,-0.015106510652920565,-0.015006137630288467,0.8704183910761623,0.49185204446632036,"(0.0, 0.0, 0.0, 0.0, 0.0, 0.0, 0.0, 0.0, 0.0)",0.000956,0.001064,0.000117,"(0.0, 0.0, 0.0, 0.0, 0.0, 0.0, 0.0, 0.0, 0.0)",0.112,0.417,-9.805,"(0.0, 0.0, 0.0, 0.0, 0.0, 0.0, 0.0, 0.0, 0.0)",0,0,0,,-0.3503,-0.1268,0.1526,"(0.0, 0.0, 0.0, 0.0, 0.0, 0.0, 0.0, 0.0, 0.0)"
1666913727.6527328,0,1666913727,652243375,IMU1_Frame,0,0,0,,-0.015114236385524905,-0.015001711718414244,0.8704141429964154,0.4918594597807546,"(0.0, 0.0, 0.0, 0.0, 0.0, 0.0, 0.0, 0.0, 0.0)",0.000277,0.000124,-0.000144,"(0.0, 0.0, 0.0, 0.0, 0.0, 0.0, 0.0, 0.0, 0.0)",0.11,0.425,-9.859,"(0.0, 0.0, 0.0, 0.0, 0.0, 0.0, 0.0, 0.0, 0.0)",0,0,0,,-0.3484,-0.12,0.1467,"(0.0, 0.0, 0.0, 0.0, 0.0, 0.0, 0.0, 0.0, 0.0)"
1666913727.6778045,0,1666913727,677264928,IMU1_Frame,0,0,0,,-0.015109944101434323,-0.014994115921517507,0.8704142738779038,0.4918595916586204,"(0.0, 0.0, 0.0, 0.0, 0.0, 0.0, 0.0, 0.0, 0.0)",0.000169,0.000215,-0.000495,"(0.0, 0.0, 0.0, 0.0, 0.0, 0.0, 0.0, 0.0, 0.0)",0.158,0.408,-9.83,"(0.0, 0.0, 0.0, 0.0, 0.0, 0.0, 0.0, 0.0, 0.0)",0,0,0,,-0.3484,-0.1259,0.1527,"(0.0, 0.0, 0.0, 0.0, 0.0, 0.0, 0.0, 0.0, 0.0)"
1666913727.7027726,0,1666913727,702210664,IMU1_Frame,0,0,0,,-0.015105651816193055,-0.01498652012347891,0.8704144046931067,0.491859723499029,"(0.0, 0.0, 0.0, 0.0, 0.0, 0.0, 0.0, 0.0, 0.0)",0.000798,-0.000569,-0.000318,"(0.0, 0.0, 0.0, 0.0, 0.0, 0.0, 0.0, 0.0, 0.0)",0.148,0.391,-9.845,"(0.0, 0.0, 0.0, 0.0, 0.0, 0.0, 0.0, 0.0, 0.0)",0,0,0,,-0.3482,-0.1121,0.149,"(0.0, 0.0, 0.0, 0.0, 0.0, 0.0, 0.0, 0.0, 0.0)"
1666913727.7276971,0,1666913727,727177619,IMU1_Frame,0,0,0,,-0.015097197891172977,-0.014971196776642968,0.8704103738033949,0.4918675828496364,"(0.0, 0.0, 0.0, 0.0, 0.0, 0.0, 0.0, 0.0, 0.0)",0.001183,0.000327,-4.2e-05,"(0.0, 0.0, 0.0, 0.0, 0.0, 0.0, 0.0, 0.0, 0.0)",0.101,0.386,-9.865,"(0.0, 0.0, 0.0, 0.0, 0.0, 0.0, 0.0, 0.0, 0.0)",0,0,0,,-0.3521,-0.1198,0.15,"(0.0, 0.0, 0.0, 0.0, 0.0, 0.0, 0.0, 0.0, 0.0)"
1666913727.7525826,0,1666913727,752128362,IMU1_Frame,0,0,0,,-0.015085310785875827,-0.014967895162968103,0.8704104604321826,0.4918678947472785,"(0.0, 0.0, 0.0, 0.0, 0.0, 0.0, 0.0, 0.0, 0.0)",0.000794,-0.000686,0.00039,"(0.0, 0.0, 0.0, 0.0, 0.0, 0.0, 0.0, 0.0, 0.0)",0.125,0.406,-9.783,"(0.0, 0.0, 0.0, 0.0, 0.0, 0.0, 0.0, 0.0, 0.0)",0,0,0,,-0.3503,-0.1228,0.1502,"(0.0, 0.0, 0.0, 0.0, 0.0, 0.0, 0.0, 0.0, 0.0)"
1666913727.7779615,0,1666913727,777200698,IMU1_Frame,0,0,0,,-0.015081148980843933,-0.014960167790926387,0.8704062986271507,0.4918756221193203,"(0.0, 0.0, 0.0, 0.0, 0.0, 0.0, 0.0, 0.0, 0.0)",0.000257,0.00073,-7.8e-05,"(0.0, 0.0, 0.0, 0.0, 0.0, 0.0, 0.0, 0.0, 0.0)",0.094,0.398,-9.838,"(0.0, 0.0, 0.0, 0.0, 0.0, 0.0, 0.0, 0.0, 0.0)",0,0,0,,-0.3473,-0.116,0.1526,"(0.0, 0.0, 0.0, 0.0, 0.0, 0.0, 0.0, 0.0, 0.0)"
1666913727.803175,0,1666913727,802249431,IMU1_Frame,0,0,0,,-0.015085441404827767,-0.014967763518227217,0.8704061680419158,0.49187549049273877,"(0.0, 0.0, 0.0, 0.0, 0.0, 0.0, 0.0, 0.0, 0.0)",0.000967,-0.000728,-0.000146,"(0.0, 0.0, 0.0, 0.0, 0.0, 0.0, 0.0, 0.0, 0.0)",0.121,0.394,-9.833,"(0.0, 0.0, 0.0, 0.0, 0.0, 0.0, 0.0, 0.0, 0.0)",0,0,0,,-0.3502,-0.1199,0.149,"(0.0, 0.0, 0.0, 0.0, 0.0, 0.0, 0.0, 0.0, 0.0)"
1666913727.8279936,0,1666913727,827263832,IMU1_Frame,0,0,0,,-0.015077977346110195,-0.014971926154087664,0.8704018315295264,0.4918832663309789,"(0.0, 0.0, 0.0, 0.0, 0.0, 0.0, 0.0, 0.0, 0.0)",0.000321,-0.000305,0.000427,"(0.0, 0.0, 0.0, 0.0, 0.0, 0.0, 0.0, 0.0, 0.0)",0.121,0.419,-9.844,"(0.0, 0.0, 0.0, 0.0, 0.0, 0.0, 0.0, 0.0, 0.0)",0,0,0,,-0.3523,-0.1287,0.1466,"(0.0, 0.0, 0.0, 0.0, 0.0, 0.0, 0.0, 0.0, 0.0)"
1666913727.852853,0,1666913727,852186203,IMU1_Frame,0,0,0,,-0.015077977346110195,-0.014971926154087664,0.8704018315295264,0.4918832663309789,"(0.0, 0.0, 0.0, 0.0, 0.0, 0.0, 0.0, 0.0, 0.0)",6.3e-05,0.000175,-0.000613,"(0.0, 0.0, 0.0, 0.0, 0.0, 0.0, 0.0, 0.0, 0.0)",0.115,0.454,-9.812,"(0.0, 0.0, 0.0, 0.0, 0.0, 0.0, 0.0, 0.0, 0.0)",0,0,0,,-0.3474,-0.12,0.1527,"(0.0, 0.0, 0.0, 0.0, 0.0, 0.0, 0.0, 0.0, 0.0)"
1666913727.8781075,0,1666913727,877473115,IMU1_Frame,0,0,0,,-0.015077977346110195,-0.014971926154087664,0.8704018315295264,0.4918832663309789,"(0.0, 0.0, 0.0, 0.0, 0.0, 0.0, 0.0, 0.0, 0.0)",0.001046,-0.000258,0.00072,"(0.0, 0.0, 0.0, 0.0, 0.0, 0.0, 0.0, 0.0, 0.0)",0.111,0.428,-9.781,"(0.0, 0.0, 0.0, 0.0, 0.0, 0.0, 0.0, 0.0, 0.0)",0,0,0,,-0.3512,-0.1189,0.1524,"(0.0, 0.0, 0.0, 0.0, 0.0, 0.0, 0.0, 0.0, 0.0)"
1666913727.9030588,0,1666913727,902428627,IMU1_Frame,0,0,0,,-0.015085702639285162,-0.014967500225325883,0.8703975830625269,0.491890681871283,"(0.0, 0.0, 0.0, 0.0, 0.0, 0.0, 0.0, 0.0, 0.0)",-0.000225,-0.001684,-0.000614,"(0.0, 0.0, 0.0, 0.0, 0.0, 0.0, 0.0, 0.0, 0.0)",0.114,0.412,-9.862,"(0.0, 0.0, 0.0, 0.0, 0.0, 0.0, 0.0, 0.0, 0.0)",0,0,0,,-0.3494,-0.1268,0.1526,"(0.0, 0.0, 0.0, 0.0, 0.0, 0.0, 0.0, 0.0, 0.0)"
1666913727.9281125,0,1666913727,927234411,IMU1_Frame,0,0,0,,-0.015096729834790022,-0.014951184129471249,0.8703935088993523,0.4918980488955971,"(0.0, 0.0, 0.0, 0.0, 0.0, 0.0, 0.0, 0.0, 0.0)",-0.000289,-0.000452,-0.000702,"(0.0, 0.0, 0.0, 0.0, 0.0, 0.0, 0.0, 0.0, 0.0)",0.153,0.405,-9.838,"(0.0, 0.0, 0.0, 0.0, 0.0, 0.0, 0.0, 0.0, 0.0)",0,0,0,,-0.3464,-0.119,0.1527,"(0.0, 0.0, 0.0, 0.0, 0.0, 0.0, 0.0, 0.0, 0.0)"
1666913727.952741,0,1666913727,952038764,IMU1_Frame,0,0,0,,-0.015105445678715974,-0.014966243540400402,0.870388955168283,0.4919053809282853,"(0.0, 0.0, 0.0, 0.0, 0.0, 0.0, 0.0, 0.0, 0.0)",-0.001098,-0.000904,1.5e-05,"(0.0, 0.0, 0.0, 0.0, 0.0, 0.0, 0.0, 0.0, 0.0)",0.138,0.379,-9.805,"(0.0, 0.0, 0.0, 0.0, 0.0, 0.0, 0.0, 0.0, 0.0)",0,0,0,,-0.3503,-0.1229,0.1455,"(0.0, 0.0, 0.0, 0.0, 0.0, 0.0, 0.0, 0.0, 0.0)"
1666913727.9782584,0,1666913727,977525711,IMU1_Frame,0,0,0,,-0.01510557628325402,-0.014966111719949491,0.8703846624508883,0.4919129764860752,"(0.0, 0.0, 0.0, 0.0, 0.0, 0.0, 0.0, 0.0, 0.0)",0.001207,-0.000731,-0.000331,"(0.0, 0.0, 0.0, 0.0, 0.0, 0.0, 0.0, 0.0, 0.0)",0.121,0.405,-9.854,"(0.0, 0.0, 0.0, 0.0, 0.0, 0.0, 0.0, 0.0, 0.0)",0,0,0,,-0.3493,-0.1209,0.1561,"(0.0, 0.0, 0.0, 0.0, 0.0, 0.0, 0.0, 0.0, 0.0)"
1666913728.0029888,0,1666913728,1982212,IMU1_Frame,0,0,0,,-0.015117594185431106,-0.014969280783617046,0.8703802829710585,0.4919202597922616,"(0.0, 0.0, 0.0, 0.0, 0.0, 0.0, 0.0, 0.0, 0.0)",0.000595,0.000522,-0.000829,"(0.0, 0.0, 0.0, 0.0, 0.0, 0.0, 0.0, 0.0, 0.0)",0.135,0.405,-9.827,"(0.0, 0.0, 0.0, 0.0, 0.0, 0.0, 0.0, 0.0, 0.0)",0,0,0,,-0.3464,-0.12,0.1527,"(0.0, 0.0, 0.0, 0.0, 0.0, 0.0, 0.0, 0.0, 0.0)"
1666913728.028385,0,1666913728,27634620,IMU1_Frame,0,0,0,,-0.01512961213861725,-0.014972449637158526,0.8703759033727849,0.49192754285200013,"(0.0, 0.0, 0.0, 0.0, 0.0, 0.0, 0.0, 0.0, 0.0)",0.000683,-0.001127,-0.001208,"(0.0, 0.0, 0.0, 0.0, 0.0, 0.0, 0.0, 0.0, 0.0)",0.128,0.417,-9.792,"(0.0, 0.0, 0.0, 0.0, 0.0, 0.0, 0.0, 0.0, 0.0)",0,0,0,,-0.3496,-0.0559,0.0917,"(0.0, 0.0, 0.0, 0.0, 0.0, 0.0, 0.0, 0.0, 0.0)"
1666913728.0531118,0,1666913728,52165746,IMU1_Frame,0,0,0,,-0.015137206579805967,-0.014968154953217632,0.8703759472190736,0.49192736233793394,"(0.0, 0.0, 0.0, 0.0, 0.0, 0.0, 0.0, 0.0, 0.0)",-6e-06,-0.001363,0.00038,"(0.0, 0.0, 0.0, 0.0, 0.0, 0.0, 0.0, 0.0, 0.0)",0.119,0.404,-9.822,"(0.0, 0.0, 0.0, 0.0, 0.0, 0.0, 0.0, 0.0, 0.0)",0,0,0,,-0.35,-0.0913,0.1263,"(0.0, 0.0, 0.0, 0.0, 0.0, 0.0, 0.0, 0.0, 0.0)"
1666913728.0775816,0,1666913728,76956748,IMU1_Frame,0,0,0,,-0.01514163014280606,-0.014975618280572334,0.8703715236560736,0.49193482566528846,"(0.0, 0.0, 0.0, 0.0, 0.0, 0.0, 0.0, 0.0, 0.0)",-6.2e-05,-0.000712,-0.00125,"(0.0, 0.0, 0.0, 0.0, 0.0, 0.0, 0.0, 0.0, 0.0)",0.122,0.396,-9.806,"(0.0, 0.0, 0.0, 0.0, 0.0, 0.0, 0.0, 0.0, 0.0)",0,0,0,,-0.3482,-0.1062,0.1372,"(0.0, 0.0, 0.0, 0.0, 0.0, 0.0, 0.0, 0.0, 0.0)"
1666913728.1041827,0,1666913728,102561950,IMU1_Frame,0,0,0,,-0.015141760829152768,-0.014975486144352049,0.8703672306817257,0.49194242107095865,"(0.0, 0.0, 0.0, 0.0, 0.0, 0.0, 0.0, 0.0, 0.0)",-0.000884,-0.000744,-0.000608,"(0.0, 0.0, 0.0, 0.0, 0.0, 0.0, 0.0, 0.0, 0.0)",0.112,0.411,-9.871,"(0.0, 0.0, 0.0, 0.0, 0.0, 0.0, 0.0, 0.0, 0.0)",0,0,0,,-0.35,-0.0972,0.1334,"(0.0, 0.0, 0.0, 0.0, 0.0, 0.0, 0.0, 0.0, 0.0)"
1666913728.1277947,0,1666913728,126957416,IMU1_Frame,0,0,0,,-0.015146053836065121,-0.014983081530720166,0.8703670999628145,0.4919422889154364,"(0.0, 0.0, 0.0, 0.0, 0.0, 0.0, 0.0, 0.0, 0.0)",0.000212,-0.000747,0.00011,"(0.0, 0.0, 0.0, 0.0, 0.0, 0.0, 0.0, 0.0, 0.0)",0.135,0.426,-9.827,"(0.0, 0.0, 0.0, 0.0, 0.0, 0.0, 0.0, 0.0, 0.0)",0,0,0,,-0.3492,-0.1061,0.1347,"(0.0, 0.0, 0.0, 0.0, 0.0, 0.0, 0.0, 0.0, 0.0)"
1666913728.1534905,0,1666913728,152540206,IMU1_Frame,0,0,0,,-0.015141891514346362,-0.01497535400699132,0.8703629376410957,0.4919500164391651,"(0.0, 0.0, 0.0, 0.0, 0.0, 0.0, 0.0, 0.0, 0.0)",0.001634,3.4e-05,-0.000295,"(0.0, 0.0, 0.0, 0.0, 0.0, 0.0, 0.0, 0.0, 0.0)",0.079,0.39,-9.782,"(0.0, 0.0, 0.0, 0.0, 0.0, 0.0, 0.0, 0.0, 0.0)",0,0,0,,-0.3491,-0.1022,0.1371,"(0.0, 0.0, 0.0, 0.0, 0.0, 0.0, 0.0, 0.0, 0.0)"
1666913728.1777987,0,1666913728,177017450,IMU1_Frame,0,0,0,,-0.015141891514346362,-0.01497535400699132,0.8703629376410957,0.4919500164391651,"(0.0, 0.0, 0.0, 0.0, 0.0, 0.0, 0.0, 0.0, 0.0)",-4.4e-05,-0.000471,-0.000848,"(0.0, 0.0, 0.0, 0.0, 0.0, 0.0, 0.0, 0.0, 0.0)",0.099,0.405,-9.837,"(0.0, 0.0, 0.0, 0.0, 0.0, 0.0, 0.0, 0.0, 0.0)",0,0,0,,-0.3512,-0.112,0.1277,"(0.0, 0.0, 0.0, 0.0, 0.0, 0.0, 0.0, 0.0, 0.0)"
1666913728.2030857,0,1666913728,202049970,IMU1_Frame,0,0,0,,-0.015141030207669225,-0.014955736291633675,0.8703589495173761,0.49195769548939344,"(0.0, 0.0, 0.0, 0.0, 0.0, 0.0, 0.0, 0.0, 0.0)",0.001133,0.001465,-0.000167,"(0.0, 0.0, 0.0, 0.0, 0.0, 0.0, 0.0, 0.0, 0.0)",0.128,0.39,-9.807,"(0.0, 0.0, 0.0, 0.0, 0.0, 0.0, 0.0, 0.0, 0.0)",0,0,0,,-0.3492,-0.1052,0.1371,"(0.0, 0.0, 0.0, 0.0, 0.0, 0.0, 0.0, 0.0, 0.0)"
1666913728.2279325,0,1666913728,227037429,IMU1_Frame,0,0,0,,-0.015124849628954011,-0.01494484061133226,0.8703591667377866,0.49195814002647537,"(0.0, 0.0, 0.0, 0.0, 0.0, 0.0, 0.0, 0.0, 0.0)",0.000376,-0.001557,-0.0003,"(0.0, 0.0, 0.0, 0.0, 0.0, 0.0, 0.0, 0.0, 0.0)",0.146,0.396,-9.839,"(0.0, 0.0, 0.0, 0.0, 0.0, 0.0, 0.0, 0.0, 0.0)",0,0,0,,-0.3509,-0.0952,0.1428,"(0.0, 0.0, 0.0, 0.0, 0.0, 0.0, 0.0, 0.0, 0.0)"
1666913728.2532704,0,1666913728,252184391,IMU1_Frame,0,0,0,,-0.015128281094130946,-0.014932818323907079,0.8703550475819875,0.49196568701139953,"(0.0, 0.0, 0.0, 0.0, 0.0, 0.0, 0.0, 0.0, 0.0)",0.000613,-0.000767,-0.001078,"(0.0, 0.0, 0.0, 0.0, 0.0, 0.0, 0.0, 0.0, 0.0)",0.141,0.432,-9.847,"(0.0, 0.0, 0.0, 0.0, 0.0, 0.0, 0.0, 0.0, 0.0)",0,0,0,,-0.3482,-0.1012,0.1383,"(0.0, 0.0, 0.0, 0.0, 0.0, 0.0, 0.0, 0.0, 0.0)"
1666913728.2785888,0,1666913728,277305364,IMU1_Frame,0,0,0,,-0.01513257430407744,-0.01494041360395921,0.8703549172354237,0.49196555497350924,"(0.0, 0.0, 0.0, 0.0, 0.0, 0.0, 0.0, 0.0, 0.0)",0.000331,-0.001007,-0.000528,"(0.0, 0.0, 0.0, 0.0, 0.0, 0.0, 0.0, 0.0, 0.0)",0.136,0.402,-9.823,"(0.0, 0.0, 0.0, 0.0, 0.0, 0.0, 0.0, 0.0, 0.0)",0,0,0,,-0.35,-0.0972,0.1405,"(0.0, 0.0, 0.0, 0.0, 0.0, 0.0, 0.0, 0.0, 0.0)"
1666913728.3033183,0,1666913728,302121639,IMU1_Frame,0,0,0,,-0.015125110463325205,-0.014944576630631149,0.8703505803158983,0.4919733305846795,"(0.0, 0.0, 0.0, 0.0, 0.0, 0.0, 0.0, 0.0, 0.0)",-0.000764,-0.000597,-0.001035,"(0.0, 0.0, 0.0, 0.0, 0.0, 0.0, 0.0, 0.0, 0.0)",0.121,0.372,-9.819,"(0.0, 0.0, 0.0, 0.0, 0.0, 0.0, 0.0, 0.0, 0.0)",0,0,0,,-0.3464,-0.1121,0.1409,"(0.0, 0.0, 0.0, 0.0, 0.0, 0.0, 0.0, 0.0, 0.0)"
1666913728.3272119,0,1666913728,326757669,IMU1_Frame,0,0,0,,-0.015132835061181602,-0.014940149488437757,0.8703463306841208,0.4919807454575445,"(0.0, 0.0, 0.0, 0.0, 0.0, 0.0, 0.0, 0.0, 0.0)",-0.000218,-0.000788,-0.000115,"(0.0, 0.0, 0.0, 0.0, 0.0, 0.0, 0.0, 0.0, 0.0)",0.112,0.392,-9.85,"(0.0, 0.0, 0.0, 0.0, 0.0, 0.0, 0.0, 0.0, 0.0)",0,0,0,,-0.3472,-0.1032,0.1407,"(0.0, 0.0, 0.0, 0.0, 0.0, 0.0, 0.0, 0.0, 0.0)"
1666913728.3524296,0,1666913728,351870059,IMU1_Frame,0,0,0,,-0.015129664702299718,-0.014951907811512124,0.8703418631820157,0.49198838898052183,"(0.0, 0.0, 0.0, 0.0, 0.0, 0.0, 0.0, 0.0, 0.0)",0.00028,-9.9e-05,0.000187,"(0.0, 0.0, 0.0, 0.0, 0.0, 0.0, 0.0, 0.0, 0.0)",0.114,0.447,-9.84,"(0.0, 0.0, 0.0, 0.0, 0.0, 0.0, 0.0, 0.0, 0.0)",0,0,0,,-0.3472,-0.1013,0.1371,"(0.0, 0.0, 0.0, 0.0, 0.0, 0.0, 0.0, 0.0, 0.0)"
1666913728.3777983,0,1666913728,377188205,IMU1_Frame,0,0,0,,-0.015138251517264195,-0.014967098140364513,0.8703416020894345,0.491988124843124,"(0.0, 0.0, 0.0, 0.0, 0.0, 0.0, 0.0, 0.0, 0.0)",-0.000392,-0.001244,-0.000768,"(0.0, 0.0, 0.0, 0.0, 0.0, 0.0, 0.0, 0.0, 0.0)",0.142,0.42,-9.843,"(0.0, 0.0, 0.0, 0.0, 0.0, 0.0, 0.0, 0.0, 0.0)",0,0,0,,-0.3521,-0.111,0.1299,"(0.0, 0.0, 0.0, 0.0, 0.0, 0.0, 0.0, 0.0, 0.0)"
1666913728.4025,0,1666913728,401813030,IMU1_Frame,0,0,0,,-0.015134950783248165,-0.014978988516820824,0.8703414275473494,0.49198817329550054,"(0.0, 0.0, 0.0, 0.0, 0.0, 0.0, 0.0, 0.0, 0.0)",0.000328,-0.000473,0.001001,"(0.0, 0.0, 0.0, 0.0, 0.0, 0.0, 0.0, 0.0, 0.0)",0.125,0.415,-9.769,"(0.0, 0.0, 0.0, 0.0, 0.0, 0.0, 0.0, 0.0, 0.0)",0,0,0,,-0.3464,-0.1092,0.1302,"(0.0, 0.0, 0.0, 0.0, 0.0, 0.0, 0.0, 0.0, 0.0)"
1666913728.4281137,0,1666913728,427013635,IMU1_Frame,0,0,0,,-0.015127356642326405,-0.014983283729419648,0.8703413835846954,0.4919883538353095,"(0.0, 0.0, 0.0, 0.0, 0.0, 0.0, 0.0, 0.0, 0.0)",0.000323,0.000535,0.000876,"(0.0, 0.0, 0.0, 0.0, 0.0, 0.0, 0.0, 0.0, 0.0)",0.103,0.411,-9.912,"(0.0, 0.0, 0.0, 0.0, 0.0, 0.0, 0.0, 0.0, 0.0)",0,0,0,,-0.3481,-0.0963,0.1359,"(0.0, 0.0, 0.0, 0.0, 0.0, 0.0, 0.0, 0.0, 0.0)"
1666913728.4528542,0,1666913728,451974868,IMU1_Frame,0,0,0,,-0.015131650050078292,-0.01499087889022899,0.8703412527977383,0.4919882218054857,"(0.0, 0.0, 0.0, 0.0, 0.0, 0.0, 0.0, 0.0, 0.0)",0.000624,-0.000471,-0.000597,"(0.0, 0.0, 0.0, 0.0, 0.0, 0.0, 0.0, 0.0, 0.0)",0.103,0.425,-9.795,"(0.0, 0.0, 0.0, 0.0, 0.0, 0.0, 0.0, 0.0, 0.0)",0,0,0,,-0.3472,-0.1003,0.1371,"(0.0, 0.0, 0.0, 0.0, 0.0, 0.0, 0.0, 0.0, 0.0)"
1666913728.4776764,0,1666913728,476982593,IMU1_Frame,0,0,0,,-0.015124186766584093,-0.01499504211844547,0.8703369152894296,0.49199599751521933,"(0.0, 0.0, 0.0, 0.0, 0.0, 0.0, 0.0, 0.0, 0.0)",0.000458,1.4e-05,-0.001014,"(0.0, 0.0, 0.0, 0.0, 0.0, 0.0, 0.0, 0.0, 0.0)",0.115,0.434,-9.802,"(0.0, 0.0, 0.0, 0.0, 0.0, 0.0, 0.0, 0.0, 0.0)",0,0,0,,-0.3492,-0.1052,0.1312,"(0.0, 0.0, 0.0, 0.0, 0.0, 0.0, 0.0, 0.0, 0.0)"
1666913728.5024643,0,1666913728,501757621,IMU1_Frame,0,0,0,,-0.0151286111631719,-0.015002505218794353,0.8703324908928419,0.4920034606155684,"(0.0, 0.0, 0.0, 0.0, 0.0, 0.0, 0.0, 0.0, 0.0)",0.000747,-0.00096,0.000976,"(0.0, 0.0, 0.0, 0.0, 0.0, 0.0, 0.0, 0.0, 0.0)",0.134,0.394,-9.869,"(0.0, 0.0, 0.0, 0.0, 0.0, 0.0, 0.0, 0.0, 0.0)",0,0,0,,-0.3492,-0.1101,0.1395,"(0.0, 0.0, 0.0, 0.0, 0.0, 0.0, 0.0, 0.0, 0.0)"
1666913728.5272622,0,1666913728,526702880,IMU1_Frame,0,0,0,,-0.015131911687967998,-0.014990614790831127,0.8703326658508267,0.49200341205102804,"(0.0, 0.0, 0.0, 0.0, 0.0, 0.0, 0.0, 0.0, 0.0)",0.001181,0.000278,-0.000663,"(0.0, 0.0, 0.0, 0.0, 0.0, 0.0, 0.0, 0.0, 0.0)",0.154,0.393,-9.839,"(0.0, 0.0, 0.0, 0.0, 0.0, 0.0, 0.0, 0.0, 0.0)",0,0,0,,-0.3491,-0.1012,0.1406,"(0.0, 0.0, 0.0, 0.0, 0.0, 0.0, 0.0, 0.0, 0.0)"
1666913728.552948,0,1666913728,551893949,IMU1_Frame,0,0,0,,-0.015142806278413589,-0.014974429013534483,0.8703328845008098,0.49200318296758294,"(0.0, 0.0, 0.0, 0.0, 0.0, 0.0, 0.0, 0.0, 0.0)",0.000523,-6.1e-05,-0.000454,"(0.0, 0.0, 0.0, 0.0, 0.0, 0.0, 0.0, 0.0, 0.0)",0.131,0.407,-9.856,"(0.0, 0.0, 0.0, 0.0, 0.0, 0.0, 0.0, 0.0, 0.0)",0,0,0,,-0.3492,-0.1071,0.1418,"(0.0, 0.0, 0.0, 0.0, 0.0, 0.0, 0.0, 0.0, 0.0)"
1666913728.5777733,0,1666913728,576867580,IMU1_Frame,0,0,0,,-0.015154824582409793,-0.0149775965029134,0.8703285040937087,0.4920104651904059,"(0.0, 0.0, 0.0, 0.0, 0.0, 0.0, 0.0, 0.0, 0.0)",0.000376,-0.00123,-0.001035,"(0.0, 0.0, 0.0, 0.0, 0.0, 0.0, 0.0, 0.0, 0.0)",0.154,0.4,-9.879,"(0.0, 0.0, 0.0, 0.0, 0.0, 0.0, 0.0, 0.0, 0.0)",0,0,0,,-0.3502,-0.114,0.136,"(0.0, 0.0, 0.0, 0.0, 0.0, 0.0, 0.0, 0.0, 0.0)"
1666913728.6022232,0,1666913728,601793527,IMU1_Frame,0,0,0,,-0.015146237377530175,-0.014962406402662557,0.8703287653695231,0.492010729617055,"(0.0, 0.0, 0.0, 0.0, 0.0, 0.0, 0.0, 0.0, 0.0)",0.000252,-0.001076,-0.001274,"(0.0, 0.0, 0.0, 0.0, 0.0, 0.0, 0.0, 0.0, 0.0)",0.126,0.41,-9.841,"(0.0, 0.0, 0.0, 0.0, 0.0, 0.0, 0.0, 0.0, 0.0)",0,0,0,,-0.3483,-0.1111,0.1431,"(0.0, 0.0, 0.0, 0.0, 0.0, 0.0, 0.0, 0.0, 0.0)"
1666913728.627014,0,1666913728,626559257,IMU1_Frame,0,0,0,,-0.015153961937683801,-0.014957978744752496,0.8703245154654241,0.49201814406517336,"(0.0, 0.0, 0.0, 0.0, 0.0, 0.0, 0.0, 0.0, 0.0)",-0.000268,-0.000811,-0.001083,"(0.0, 0.0, 0.0, 0.0, 0.0, 0.0, 0.0, 0.0, 0.0)",0.108,0.401,-9.868,"(0.0, 0.0, 0.0, 0.0, 0.0, 0.0, 0.0, 0.0, 0.0)",0,0,0,,-0.3492,-0.1091,0.136,"(0.0, 0.0, 0.0, 0.0, 0.0, 0.0, 0.0, 0.0, 0.0)"
1666913728.6526022,0,1666913728,651772022,IMU1_Frame,0,0,0,,-0.015146498518479004,-0.014962142048672139,0.8703201780297778,0.49202591964464715,"(0.0, 0.0, 0.0, 0.0, 0.0, 0.0, 0.0, 0.0, 0.0)",0.001495,-0.001854,0.000767,"(0.0, 0.0, 0.0, 0.0, 0.0, 0.0, 0.0, 0.0, 0.0)",0.116,0.415,-9.839,"(0.0, 0.0, 0.0, 0.0, 0.0, 0.0, 0.0, 0.0, 0.0)",0,0,0,,-0.35,-0.1002,0.1417,"(0.0, 0.0, 0.0, 0.0, 0.0, 0.0, 0.0, 0.0, 0.0)"
1666913728.6781268,0,1666913728,677434444,IMU1_Frame,0,0,0,,-0.015138904565708489,-0.014966437595287175,0.8703201342292894,0.49202610019120785,"(0.0, 0.0, 0.0, 0.0, 0.0, 0.0, 0.0, 0.0, 0.0)",-0.000552,0.00073,-8.6e-05,"(0.0, 0.0, 0.0, 0.0, 0.0, 0.0, 0.0, 0.0, 0.0)",0.096,0.409,-9.823,"(0.0, 0.0, 0.0, 0.0, 0.0, 0.0, 0.0, 0.0, 0.0)",0,0,0,,-0.3493,-0.114,0.1384,"(0.0, 0.0, 0.0, 0.0, 0.0, 0.0, 0.0, 0.0, 0.0)"
1666913728.7023532,0,1666913728,701653003,IMU1_Frame,0,0,0,,-0.015119553530180036,-0.014967301766924035,0.870315883302947,0.49203418809009297,"(0.0, 0.0, 0.0, 0.0, 0.0, 0.0, 0.0, 0.0, 0.0)",0.000593,0.000676,-0.000378,"(0.0, 0.0, 0.0, 0.0, 0.0, 0.0, 0.0, 0.0, 0.0)",0.102,0.409,-9.81,"(0.0, 0.0, 0.0, 0.0, 0.0, 0.0, 0.0, 0.0, 0.0)",0,0,0,,-0.3483,-0.1111,0.1431,"(0.0, 0.0, 0.0, 0.0, 0.0, 0.0, 0.0, 0.0, 0.0)"
1666913728.7281022,0,1666913728,727402925,IMU1_Frame,0,0,0,,-0.015119684143952311,-0.014967169823358856,0.8703115894615006,0.4920417830102057,"(0.0, 0.0, 0.0, 0.0, 0.0, 0.0, 0.0, 0.0, 0.0)",-0.000169,-0.000127,-0.000233,"(0.0, 0.0, 0.0, 0.0, 0.0, 0.0, 0.0, 0.0, 0.0)",0.102,0.407,-9.789,"(0.0, 0.0, 0.0, 0.0, 0.0, 0.0, 0.0, 0.0, 0.0)",0,0,0,,-0.35,-0.1022,0.1405,"(0.0, 0.0, 0.0, 0.0, 0.0, 0.0, 0.0, 0.0, 0.0)"
1666913728.7529166,0,1666913728,752295255,IMU1_Frame,0,0,0,,-0.01511209026112309,-0.014971465499476352,0.8703115454965138,0.4920419633773195,"(0.0, 0.0, 0.0, 0.0, 0.0, 0.0, 0.0, 0.0, 0.0)",-0.000422,-0.000508,0.000496,"(0.0, 0.0, 0.0, 0.0, 0.0, 0.0, 0.0, 0.0, 0.0)",0.13,0.392,-9.807,"(0.0, 0.0, 0.0, 0.0, 0.0, 0.0, 0.0, 0.0, 0.0)",0,0,0,,-0.3492,-0.1101,0.1383,"(0.0, 0.0, 0.0, 0.0, 0.0, 0.0, 0.0, 0.0, 0.0)"
1666913728.7778966,0,1666913728,777311801,IMU1_Frame,0,0,0,,-0.015132565762525772,-0.01498995452235864,0.8703111973236598,0.4920413870091804,"(0.0, 0.0, 0.0, 0.0, 0.0, 0.0, 0.0, 0.0, 0.0)",-0.00089,0.000972,-0.000227,"(0.0, 0.0, 0.0, 0.0, 0.0, 0.0, 0.0, 0.0, 0.0)",0.13,0.379,-9.861,"(0.0, 0.0, 0.0, 0.0, 0.0, 0.0, 0.0, 0.0, 0.0)",0,0,0,,-0.3493,-0.1131,0.1348,"(0.0, 0.0, 0.0, 0.0, 0.0, 0.0, 0.0, 0.0, 0.0)"
1666913728.803574,0,1666913728,802361965,IMU1_Frame,0,0,0,,-0.015136990510811386,-0.014997417325152338,0.8703067725753744,0.492048849811974,"(0.0, 0.0, 0.0, 0.0, 0.0, 0.0, 0.0, 0.0, 0.0)",-0.000541,-0.000513,-0.000545,"(0.0, 0.0, 0.0, 0.0, 0.0, 0.0, 0.0, 0.0, 0.0)",0.125,0.398,-9.835,"(0.0, 0.0, 0.0, 0.0, 0.0, 0.0, 0.0, 0.0, 0.0)",0,0,0,,-0.3473,-0.1062,0.1431,"(0.0, 0.0, 0.0, 0.0, 0.0, 0.0, 0.0, 0.0, 0.0)"
1666913728.828829,0,1666913728,827529191,IMU1_Frame,0,0,0,,-0.015144584348700117,-0.014993121583161101,0.8703068166256073,0.4920486691426971,"(0.0, 0.0, 0.0, 0.0, 0.0, 0.0, 0.0, 0.0, 0.0)",7.9e-05,0.001666,-0.001159,"(0.0, 0.0, 0.0, 0.0, 0.0, 0.0, 0.0, 0.0, 0.0)",0.101,0.416,-9.84,"(0.0, 0.0, 0.0, 0.0, 0.0, 0.0, 0.0, 0.0, 0.0)",0,0,0,,-0.3501,-0.1081,0.1347,"(0.0, 0.0, 0.0, 0.0, 0.0, 0.0, 0.0, 0.0, 0.0)"
1666913728.8526926,0,1666913728,852159261,IMU1_Frame,0,0,0,,-0.015144715187791842,-0.01499298942115984,0.8703025226577902,0.49205626398368757,"(0.0, 0.0, 0.0, 0.0, 0.0, 0.0, 0.0, 0.0, 0.0)",0.000864,-0.000398,-0.000132,"(0.0, 0.0, 0.0, 0.0, 0.0, 0.0, 0.0, 0.0, 0.0)",0.124,0.443,-9.83,"(0.0, 0.0, 0.0, 0.0, 0.0, 0.0, 0.0, 0.0, 0.0)",0,0,0,,-0.3481,-0.0953,0.1394,"(0.0, 0.0, 0.0, 0.0, 0.0, 0.0, 0.0, 0.0, 0.0)"
1666913728.877951,0,1666913728,877396583,IMU1_Frame,0,0,0,,-0.015152439787489612,-0.014988561382346968,0.8702982726108048,0.4920636780812248,"(0.0, 0.0, 0.0, 0.0, 0.0, 0.0, 0.0, 0.0, 0.0)",0.000333,-0.001202,-0.0013,"(0.0, 0.0, 0.0, 0.0, 0.0, 0.0, 0.0, 0.0, 0.0)",0.126,0.396,-9.807,"(0.0, 0.0, 0.0, 0.0, 0.0, 0.0, 0.0, 0.0, 0.0)",0,0,0,,-0.3483,-0.1121,0.1407,"(0.0, 0.0, 0.0, 0.0, 0.0, 0.0, 0.0, 0.0, 0.0)"
1666913728.902877,0,1666913728,902136564,IMU1_Frame,0,0,0,,-0.01514814572125671,-0.014980966596610605,0.8702984033775395,0.49206381029247037,"(0.0, 0.0, 0.0, 0.0, 0.0, 0.0, 0.0, 0.0, 0.0)",-0.000419,1.5e-05,-0.000859,"(0.0, 0.0, 0.0, 0.0, 0.0, 0.0, 0.0, 0.0, 0.0)",0.127,0.398,-9.82,"(0.0, 0.0, 0.0, 0.0, 0.0, 0.0, 0.0, 0.0, 0.0)",0,0,0,,-0.3491,-0.0992,0.1394,"(0.0, 0.0, 0.0, 0.0, 0.0, 0.0, 0.0, 0.0, 0.0)"
1666913728.928451,0,1666913728,927340507,IMU1_Frame,0,0,0,,-0.01516003354809507,-0.014984265505535693,0.870298316531637,0.49206349733777127,"(0.0, 0.0, 0.0, 0.0, 0.0, 0.0, 0.0, 0.0, 0.0)",-0.000135,0.000194,0.000647,"(0.0, 0.0, 0.0, 0.0, 0.0, 0.0, 0.0, 0.0, 0.0)",0.134,0.403,-9.786,"(0.0, 0.0, 0.0, 0.0, 0.0, 0.0, 0.0, 0.0, 0.0)",0,0,0,,-0.3483,-0.1101,0.1372,"(0.0, 0.0, 0.0, 0.0, 0.0, 0.0, 0.0, 0.0, 0.0)"
1666913728.9527893,0,1666913728,952134609,IMU1_Frame,0,0,0,,-0.01516003354809507,-0.014984265505535693,0.870298316531637,0.49206349733777127,"(0.0, 0.0, 0.0, 0.0, 0.0, 0.0, 0.0, 0.0, 0.0)",0.000606,-0.00095,-0.00037,"(0.0, 0.0, 0.0, 0.0, 0.0, 0.0, 0.0, 0.0, 0.0)",0.118,0.382,-9.814,"(0.0, 0.0, 0.0, 0.0, 0.0, 0.0, 0.0, 0.0, 0.0)",0,0,0,,-0.3501,-0.1051,0.1406,"(0.0, 0.0, 0.0, 0.0, 0.0, 0.0, 0.0, 0.0, 0.0)"
1666913728.97809,0,1666913728,977566957,IMU1_Frame,0,0,0,,-0.015163463902508976,-0.014972242515465833,0.870294196981155,0.4920710436689623,"(0.0, 0.0, 0.0, 0.0, 0.0, 0.0, 0.0, 0.0, 0.0)",0.00064,-0.001272,0.000205,"(0.0, 0.0, 0.0, 0.0, 0.0, 0.0, 0.0, 0.0, 0.0)",0.119,0.393,-9.783,"(0.0, 0.0, 0.0, 0.0, 0.0, 0.0, 0.0, 0.0, 0.0)",0,0,0,,-0.3483,-0.1101,0.1384,"(0.0, 0.0, 0.0, 0.0, 0.0, 0.0, 0.0, 0.0, 0.0)"
1666913729.0026503,0,1666913729,2106666,IMU1_Frame,0,0,0,,-0.015150711965572522,-0.014949326047205364,0.8702902944887683,0.49207903521316937,"(0.0, 0.0, 0.0, 0.0, 0.0, 0.0, 0.0, 0.0, 0.0)",-0.000406,-2.9e-05,-0.000519,"(0.0, 0.0, 0.0, 0.0, 0.0, 0.0, 0.0, 0.0, 0.0)",0.112,0.397,-9.851,"(0.0, 0.0, 0.0, 0.0, 0.0, 0.0, 0.0, 0.0, 0.0)",0,0,0,,-0.3483,-0.115,0.1408,"(0.0, 0.0, 0.0, 0.0, 0.0, 0.0, 0.0, 0.0, 0.0)"
1666913729.0281544,0,1666913729,27170658,IMU1_Frame,0,0,0,,-0.015150842422475861,-0.014949193831732228,0.8702860002559579,0.49208662990997565,"(0.0, 0.0, 0.0, 0.0, 0.0, 0.0, 0.0, 0.0, 0.0)",-0.0003,-0.000434,-0.000983,"(0.0, 0.0, 0.0, 0.0, 0.0, 0.0, 0.0, 0.0, 0.0)",0.13,0.402,-9.805,"(0.0, 0.0, 0.0, 0.0, 0.0, 0.0, 0.0, 0.0, 0.0)",0,0,0,,-0.3482,-0.1032,0.1336,"(0.0, 0.0, 0.0, 0.0, 0.0, 0.0, 0.0, 0.0, 0.0)"
1666913729.052643,0,1666913729,52089691,IMU1_Frame,0,0,0,,-0.015138954501087216,-0.014945895231758571,0.8702860870073102,0.49208694255572344,"(0.0, 0.0, 0.0, 0.0, 0.0, 0.0, 0.0, 0.0, 0.0)",0.001116,-0.001635,-0.000369,"(0.0, 0.0, 0.0, 0.0, 0.0, 0.0, 0.0, 0.0, 0.0)",0.098,0.402,-9.838,"(0.0, 0.0, 0.0, 0.0, 0.0, 0.0, 0.0, 0.0, 0.0)",0,0,0,,-0.3492,-0.1071,0.1418,"(0.0, 0.0, 0.0, 0.0, 0.0, 0.0, 0.0, 0.0, 0.0)"
1666913729.0782764,0,1666913729,77283143,IMU1_Frame,0,0,0,,-0.015131491309525926,-0.014950059262682294,0.8702817489658086,0.49209471762639884,"(0.0, 0.0, 0.0, 0.0, 0.0, 0.0, 0.0, 0.0, 0.0)",-0.000483,0.000418,-0.000189,"(0.0, 0.0, 0.0, 0.0, 0.0, 0.0, 0.0, 0.0, 0.0)",0.129,0.387,-9.859,"(0.0, 0.0, 0.0, 0.0, 0.0, 0.0, 0.0, 0.0, 0.0)",0,0,0,,-0.3501,-0.1071,0.1453,"(0.0, 0.0, 0.0, 0.0, 0.0, 0.0, 0.0, 0.0, 0.0)"
1666913729.1026504,0,1666913729,102040529,IMU1_Frame,0,0,0,,-0.015135916175054996,-0.014957521817865941,0.8702773241002795,0.4921021801815825,"(0.0, 0.0, 0.0, 0.0, 0.0, 0.0, 0.0, 0.0, 0.0)",-0.00105,-0.00042,-0.00177,"(0.0, 0.0, 0.0, 0.0, 0.0, 0.0, 0.0, 0.0, 0.0)",0.117,0.41,-9.817,"(0.0, 0.0, 0.0, 0.0, 0.0, 0.0, 0.0, 0.0, 0.0)",0,0,0,,-0.3502,-0.112,0.1383,"(0.0, 0.0, 0.0, 0.0, 0.0, 0.0, 0.0, 0.0, 0.0)"
1666913729.1277356,0,1666913729,127077341,IMU1_Frame,0,0,0,,-0.015149060828165858,-0.014980041221095539,0.8702683432861029,0.49211697287850203,"(0.0, 0.0, 0.0, 0.0, 0.0, 0.0, 0.0, 0.0, 0.0)",0.000579,-0.001439,-0.001033,"(0.0, 0.0, 0.0, 0.0, 0.0, 0.0, 0.0, 0.0, 0.0)",0.113,0.417,-9.81,"(0.0, 0.0, 0.0, 0.0, 0.0, 0.0, 0.0, 0.0, 0.0)",0,0,0,,-0.3473,-0.1052,0.1395,"(0.0, 0.0, 0.0, 0.0, 0.0, 0.0, 0.0, 0.0, 0.0)"
1666913729.1532574,0,1666913729,152205228,IMU1_Frame,0,0,0,,-0.015165374203933357,-0.014990801584197966,0.8702638311118853,0.4921241220988679,"(0.0, 0.0, 0.0, 0.0, 0.0, 0.0, 0.0, 0.0, 0.0)",-0.000755,-2e-06,-0.001048,"(0.0, 0.0, 0.0, 0.0, 0.0, 0.0, 0.0, 0.0, 0.0)",0.129,0.423,-9.854,"(0.0, 0.0, 0.0, 0.0, 0.0, 0.0, 0.0, 0.0, 0.0)",0,0,0,,-0.3492,-0.1071,0.1418,"(0.0, 0.0, 0.0, 0.0, 0.0, 0.0, 0.0, 0.0, 0.0)"
1666913729.1779315,0,1666913729,177391529,IMU1_Frame,0,0,0,,-0.01517409433927575,-0.015005858132745662,0.8702592747165355,0.49213145180178464,"(0.0, 0.0, 0.0, 0.0, 0.0, 0.0, 0.0, 0.0, 0.0)",0.000152,-0.000177,-0.000279,"(0.0, 0.0, 0.0, 0.0, 0.0, 0.0, 0.0, 0.0, 0.0)",0.149,0.428,-9.838,"(0.0, 0.0, 0.0, 0.0, 0.0, 0.0, 0.0, 0.0, 0.0)",0,0,0,,-0.3493,-0.116,0.1455,"(0.0, 0.0, 0.0, 0.0, 0.0, 0.0, 0.0, 0.0, 0.0)"
1666913729.2025516,0,1666913729,201958656,IMU1_Frame,0,0,0,,-0.015185982411506309,-0.015009156104201407,0.8702591877513115,0.4921311383215503,"(0.0, 0.0, 0.0, 0.0, 0.0, 0.0, 0.0, 0.0, 0.0)",0.001147,-0.0004,-0.000938,"(0.0, 0.0, 0.0, 0.0, 0.0, 0.0, 0.0, 0.0, 0.0)",0.131,0.401,-9.829,"(0.0, 0.0, 0.0, 0.0, 0.0, 0.0, 0.0, 0.0, 0.0)",0,0,0,,-0.3502,-0.112,0.1359,"(0.0, 0.0, 0.0, 0.0, 0.0, 0.0, 0.0, 0.0, 0.0)"
1666913729.2276275,0,1666913729,226958513,IMU1_Frame,0,0,0,,-0.015197005425446556,-0.014992836091394032,0.8702551117759266,0.49213850318777624,"(0.0, 0.0, 0.0, 0.0, 0.0, 0.0, 0.0, 0.0, 0.0)",0.000939,-0.000277,-1.4e-05,"(0.0, 0.0, 0.0, 0.0, 0.0, 0.0, 0.0, 0.0, 0.0)",0.128,0.432,-9.848,"(0.0, 0.0, 0.0, 0.0, 0.0, 0.0, 0.0, 0.0, 0.0)",0,0,0,,-0.3493,-0.114,0.1348,"(0.0, 0.0, 0.0, 0.0, 0.0, 0.0, 0.0, 0.0, 0.0)"
1666913729.2539985,0,1666913729,253025770,IMU1_Frame,0,0,0,,-0.01520030408415014,-0.014980945139032066,0.8702552863264656,0.4921384547658639,"(0.0, 0.0, 0.0, 0.0, 0.0, 0.0, 0.0, 0.0, 0.0)",0.001396,-0.000761,0.000482,"(0.0, 0.0, 0.0, 0.0, 0.0, 0.0, 0.0, 0.0, 0.0)",0.127,0.389,-9.817,"(0.0, 0.0, 0.0, 0.0, 0.0, 0.0, 0.0, 0.0, 0.0)",0,0,0,,-0.35,-0.0992,0.1417,"(0.0, 0.0, 0.0, 0.0, 0.0, 0.0, 0.0, 0.0, 0.0)"
1666913729.277606,0,1666913729,277122020,IMU1_Frame,0,0,0,,-0.0152038640006641,-0.014968788828419486,0.8702468711013538,0.49215359514968815,"(0.0, 0.0, 0.0, 0.0, 0.0, 0.0, 0.0, 0.0, 0.0)",-0.000565,-0.000325,-0.001156,"(0.0, 0.0, 0.0, 0.0, 0.0, 0.0, 0.0, 0.0, 0.0)",0.129,0.382,-9.804,"(0.0, 0.0, 0.0, 0.0, 0.0, 0.0, 0.0, 0.0, 0.0)",0,0,0,,-0.3492,-0.113,0.1395,"(0.0, 0.0, 0.0, 0.0, 0.0, 0.0, 0.0, 0.0, 0.0)"
1666913729.30263,0,1666913729,301947593,IMU1_Frame,0,0,0,,-0.015203994627410223,-0.0149686561491066,0.8702425762178869,0.49216118946755105,"(0.0, 0.0, 0.0, 0.0, 0.0, 0.0, 0.0, 0.0, 0.0)",-5.8e-05,-0.000102,-0.001625,"(0.0, 0.0, 0.0, 0.0, 0.0, 0.0, 0.0, 0.0, 0.0)",0.149,0.39,-9.784,"(0.0, 0.0, 0.0, 0.0, 0.0, 0.0, 0.0, 0.0, 0.0)",0,0,0,,-0.3492,-0.1091,0.1383,"(0.0, 0.0, 0.0, 0.0, 0.0, 0.0, 0.0, 0.0, 0.0)"
1666913729.3279364,0,1666913729,327060461,IMU1_Frame,0,0,0,,-0.015207292976496346,-0.014956765104304262,0.8702427503546177,0.49216114116534243,"(0.0, 0.0, 0.0, 0.0, 0.0, 0.0, 0.0, 0.0, 0.0)",0.000613,-0.000633,-0.001848,"(0.0, 0.0, 0.0, 0.0, 0.0, 0.0, 0.0, 0.0, 0.0)",0.14,0.39,-9.841,"(0.0, 0.0, 0.0, 0.0, 0.0, 0.0, 0.0, 0.0, 0.0)",0,0,0,,-0.3482,-0.1062,0.1419,"(0.0, 0.0, 0.0, 0.0, 0.0, 0.0, 0.0, 0.0, 0.0)"
1666913729.3522587,0,1666913729,351812124,IMU1_Frame,0,0,0,,-0.015195535284931276,-0.014953334943089695,0.870238542385621,0.4921690490350179,"(0.0, 0.0, 0.0, 0.0, 0.0, 0.0, 0.0, 0.0, 0.0)",0.000745,-0.00036,-0.001288,"(0.0, 0.0, 0.0, 0.0, 0.0, 0.0, 0.0, 0.0, 0.0)",0.114,0.404,-9.852,"(0.0, 0.0, 0.0, 0.0, 0.0, 0.0, 0.0, 0.0, 0.0)",0,0,0,,-0.3492,-0.1081,0.1442,"(0.0, 0.0, 0.0, 0.0, 0.0, 0.0, 0.0, 0.0, 0.0)"
1666913729.3776617,0,1666913729,377209424,IMU1_Frame,0,0,0,,-0.015188072582806147,-0.014957499213336549,0.8702342037916607,0.4921768241390456,"(0.0, 0.0, 0.0, 0.0, 0.0, 0.0, 0.0, 0.0, 0.0)",0.000201,-0.000257,-0.000319,"(0.0, 0.0, 0.0, 0.0, 0.0, 0.0, 0.0, 0.0, 0.0)",0.123,0.409,-9.811,"(0.0, 0.0, 0.0, 0.0, 0.0, 0.0, 0.0, 0.0, 0.0)",0,0,0,,-0.3482,-0.1081,0.1407,"(0.0, 0.0, 0.0, 0.0, 0.0, 0.0, 0.0, 0.0, 0.0)"
1666913729.4023015,0,1666913729,401896476,IMU1_Frame,0,0,0,,-0.015177050576285066,-0.014973819633723164,0.8702382808265482,0.49216945907424553,"(0.0, 0.0, 0.0, 0.0, 0.0, 0.0, 0.0, 0.0, 0.0)",0.000551,-0.001353,-0.000912,"(0.0, 0.0, 0.0, 0.0, 0.0, 0.0, 0.0, 0.0, 0.0)",0.106,0.41,-9.795,"(0.0, 0.0, 0.0, 0.0, 0.0, 0.0, 0.0, 0.0, 0.0)",0,0,0,,-0.349,-0.0982,0.1405,"(0.0, 0.0, 0.0, 0.0, 0.0, 0.0, 0.0, 0.0, 0.0)"
1666913729.4276993,0,1666913729,426901578,IMU1_Frame,0,0,0,,-0.015177311916427662,-0.014973554741939234,0.870229690716465,0.49218464752256036,"(0.0, 0.0, 0.0, 0.0, 0.0, 0.0, 0.0, 0.0, 0.0)",0.000328,0.00026,-0.001494,"(0.0, 0.0, 0.0, 0.0, 0.0, 0.0, 0.0, 0.0, 0.0)",0.087,0.388,-9.809,"(0.0, 0.0, 0.0, 0.0, 0.0, 0.0, 0.0, 0.0, 0.0)",0,0,0,,-0.3521,-0.111,0.137,"(0.0, 0.0, 0.0, 0.0, 0.0, 0.0, 0.0, 0.0, 0.0)"
1666913729.4525914,0,1666913729,451771497,IMU1_Frame,0,0,0,,-0.015166551531961527,-0.014989610452259095,0.8702251770896468,0.4921924709424257,"(0.0, 0.0, 0.0, 0.0, 0.0, 0.0, 0.0, 0.0, 0.0)",-0.000214,-0.000428,-7.8e-05,"(0.0, 0.0, 0.0, 0.0, 0.0, 0.0, 0.0, 0.0, 0.0)",0.115,0.394,-9.826,"(0.0, 0.0, 0.0, 0.0, 0.0, 0.0, 0.0, 0.0, 0.0)",0,0,0,,-0.3464,-0.1121,0.142,"(0.0, 0.0, 0.0, 0.0, 0.0, 0.0, 0.0, 0.0, 0.0)"
1666913729.477851,0,1666913729,476916313,IMU1_Frame,0,0,0,,-0.015163384513130044,-0.015001369276607054,0.8702207070016963,0.4922001135670345,"(0.0, 0.0, 0.0, 0.0, 0.0, 0.0, 0.0, 0.0, 0.0)",-0.001001,-0.000489,-0.000698,"(0.0, 0.0, 0.0, 0.0, 0.0, 0.0, 0.0, 0.0, 0.0)",0.096,0.407,-9.819,"(0.0, 0.0, 0.0, 0.0, 0.0, 0.0, 0.0, 0.0, 0.0)",0,0,0,,-0.3473,-0.1062,0.1419,"(0.0, 0.0, 0.0, 0.0, 0.0, 0.0, 0.0, 0.0, 0.0)"
1666913729.5019848,0,1666913729,501583814,IMU1_Frame,0,0,0,,-0.015163384513130044,-0.015001369276607054,0.8702207070016963,0.4922001135670345,"(0.0, 0.0, 0.0, 0.0, 0.0, 0.0, 0.0, 0.0, 0.0)",0.001253,0.001372,-0.000959,"(0.0, 0.0, 0.0, 0.0, 0.0, 0.0, 0.0, 0.0, 0.0)",0.102,0.422,-9.809,"(0.0, 0.0, 0.0, 0.0, 0.0, 0.0, 0.0, 0.0, 0.0)",0,0,0,,-0.3501,-0.1081,0.1347,"(0.0, 0.0, 0.0, 0.0, 0.0, 0.0, 0.0, 0.0, 0.0)"
1666913729.5270202,0,1666913729,526591539,IMU1_Frame,0,0,0,,-0.015164513023928444,-0.015020722223011828,0.8702161055916933,0.4922076238920655,"(0.0, 0.0, 0.0, 0.0, 0.0, 0.0, 0.0, 0.0, 0.0)",-0.000399,-0.000958,-0.001009,"(0.0, 0.0, 0.0, 0.0, 0.0, 0.0, 0.0, 0.0, 0.0)",0.129,0.409,-9.846,"(0.0, 0.0, 0.0, 0.0, 0.0, 0.0, 0.0, 0.0, 0.0)",0,0,0,,-0.3491,-0.1022,0.1418,"(0.0, 0.0, 0.0, 0.0, 0.0, 0.0, 0.0, 0.0, 0.0)"
1666913729.5520742,0,1666913729,551568269,IMU1_Frame,0,0,0,,-0.01517553472833462,-0.015004401455121073,0.8702120294790028,0.49221498842753425,"(0.0, 0.0, 0.0, 0.0, 0.0, 0.0, 0.0, 0.0, 0.0)",0.001616,0.001383,-0.000914,"(0.0, 0.0, 0.0, 0.0, 0.0, 0.0, 0.0, 0.0, 0.0)",0.115,0.415,-9.813,"(0.0, 0.0, 0.0, 0.0, 0.0, 0.0, 0.0, 0.0, 0.0)",0,0,0,,-0.3491,-0.1002,0.1382,"(0.0, 0.0, 0.0, 0.0, 0.0, 0.0, 0.0, 0.0, 0.0)"
1666913729.5771055,0,1666913729,576565504,IMU1_Frame,0,0,0,,-0.015187554083388755,-0.015007565749548025,0.8702076471273841,0.49222226895200477,"(0.0, 0.0, 0.0, 0.0, 0.0, 0.0, 0.0, 0.0, 0.0)",0.000315,0.000448,-0.001615,"(0.0, 0.0, 0.0, 0.0, 0.0, 0.0, 0.0, 0.0, 0.0)",0.135,0.429,-9.863,"(0.0, 0.0, 0.0, 0.0, 0.0, 0.0, 0.0, 0.0, 0.0)",0,0,0,,-0.3483,-0.1091,0.1348,"(0.0, 0.0, 0.0, 0.0, 0.0, 0.0, 0.0, 0.0, 0.0)"
1666913729.6019468,0,1666913729,601495504,IMU1_Frame,0,0,0,,-0.01519857538824082,-0.014991244582502816,0.8702035703807744,0.4922296333913551,"(0.0, 0.0, 0.0, 0.0, 0.0, 0.0, 0.0, 0.0, 0.0)",0.000927,-0.000332,-0.000573,"(0.0, 0.0, 0.0, 0.0, 0.0, 0.0, 0.0, 0.0, 0.0)",0.145,0.416,-9.826,"(0.0, 0.0, 0.0, 0.0, 0.0, 0.0, 0.0, 0.0, 0.0)",0,0,0,,-0.3483,-0.1092,0.1313,"(0.0, 0.0, 0.0, 0.0, 0.0, 0.0, 0.0, 0.0, 0.0)"
1666913729.6277926,0,1666913729,627375841,IMU1_Frame,0,0,0,,-0.015213761239794524,-0.014982649905269887,0.8702036579204175,0.4922292711863849,"(0.0, 0.0, 0.0, 0.0, 0.0, 0.0, 0.0, 0.0, 0.0)",0.001319,-0.000952,-0.000344,"(0.0, 0.0, 0.0, 0.0, 0.0, 0.0, 0.0, 0.0, 0.0)",0.12,0.403,-9.891,"(0.0, 0.0, 0.0, 0.0, 0.0, 0.0, 0.0, 0.0, 0.0)",0,0,0,,-0.3501,-0.1041,0.1453,"(0.0, 0.0, 0.0, 0.0, 0.0, 0.0, 0.0, 0.0, 0.0)"
1666913729.6528416,0,1666913729,651927947,IMU1_Frame,0,0,0,,-0.015205170216020879,-0.01496746198399506,0.8702039192844493,0.49222953664163926,"(0.0, 0.0, 0.0, 0.0, 0.0, 0.0, 0.0, 0.0, 0.0)",0.001175,-0.000438,0.000478,"(0.0, 0.0, 0.0, 0.0, 0.0, 0.0, 0.0, 0.0, 0.0)",0.146,0.391,-9.829,"(0.0, 0.0, 0.0, 0.0, 0.0, 0.0, 0.0, 0.0, 0.0)",0,0,0,,-0.3464,-0.1121,0.1432,"(0.0, 0.0, 0.0, 0.0, 0.0, 0.0, 0.0, 0.0, 0.0)"
1666913729.6782463,0,1666913729,677608728,IMU1_Frame,0,0,0,,-0.01519657918761547,-0.014952274058160884,0.8702041803834021,0.49222980194695204,"(0.0, 0.0, 0.0, 0.0, 0.0, 0.0, 0.0, 0.0, 0.0)",0.000458,-0.000457,0.000677,"(0.0, 0.0, 0.0, 0.0, 0.0, 0.0, 0.0, 0.0, 0.0)",0.132,0.427,-9.847,"(0.0, 0.0, 0.0, 0.0, 0.0, 0.0, 0.0, 0.0, 0.0)",0,0,0,,-0.3492,-0.1091,0.1383,"(0.0, 0.0, 0.0, 0.0, 0.0, 0.0, 0.0, 0.0, 0.0)"
1666913729.7043655,0,1666913729,702657222,IMU1_Frame,0,0,0,,-0.015195581088095213,-0.014932788785163176,0.8702044846626839,0.4922298863411746,"(0.0, 0.0, 0.0, 0.0, 0.0, 0.0, 0.0, 0.0, 0.0)",-0.000166,-0.000877,-0.00095,"(0.0, 0.0, 0.0, 0.0, 0.0, 0.0, 0.0, 0.0, 0.0)",0.133,0.386,-9.825,"(0.0, 0.0, 0.0, 0.0, 0.0, 0.0, 0.0, 0.0, 0.0)",0,0,0,,-0.3463,-0.1062,0.1384,"(0.0, 0.0, 0.0, 0.0, 0.0, 0.0, 0.0, 0.0, 0.0)"
1666913729.7278988,0,1666913729,727324485,IMU1_Frame,0,0,0,,-0.015179397116919846,-0.014921898192832983,0.8702047017860691,0.4922303321077521,"(0.0, 0.0, 0.0, 0.0, 0.0, 0.0, 0.0, 0.0, 0.0)",-3e-05,-0.000386,0.000322,"(0.0, 0.0, 0.0, 0.0, 0.0, 0.0, 0.0, 0.0, 0.0)",0.117,0.375,-9.845,"(0.0, 0.0, 0.0, 0.0, 0.0, 0.0, 0.0, 0.0, 0.0)",0,0,0,,-0.3473,-0.1101,0.1443,"(0.0, 0.0, 0.0, 0.0, 0.0, 0.0, 0.0, 0.0, 0.0)"
1666913729.752413,0,1666913729,751600742,IMU1_Frame,0,0,0,,-0.015167508656955524,-0.014918601566267588,0.8702047885718871,0.4922306450791188,"(0.0, 0.0, 0.0, 0.0, 0.0, 0.0, 0.0, 0.0, 0.0)",9.7e-05,-0.001261,0.000312,"(0.0, 0.0, 0.0, 0.0, 0.0, 0.0, 0.0, 0.0, 0.0)",0.121,0.38,-9.847,"(0.0, 0.0, 0.0, 0.0, 0.0, 0.0, 0.0, 0.0, 0.0)",0,0,0,,-0.3492,-0.1081,0.1324,"(0.0, 0.0, 0.0, 0.0, 0.0, 0.0, 0.0, 0.0, 0.0)"
1666913729.778182,0,1666913729,777392148,IMU1_Frame,0,0,0,,-0.015152322774691578,-0.014927196248076795,0.870204701574729,0.4922310060164229,"(0.0, 0.0, 0.0, 0.0, 0.0, 0.0, 0.0, 0.0, 0.0)",-0.000185,-0.000293,-0.000733,"(0.0, 0.0, 0.0, 0.0, 0.0, 0.0, 0.0, 0.0, 0.0)",0.109,0.409,-9.838,"(0.0, 0.0, 0.0, 0.0, 0.0, 0.0, 0.0, 0.0, 0.0)",0,0,0,,-0.3502,-0.1101,0.1289,"(0.0, 0.0, 0.0, 0.0, 0.0, 0.0, 0.0, 0.0, 0.0)"
1666913729.8031049,0,1666913729,802310228,IMU1_Frame,0,0,0,,-0.015138396018022207,-0.014955011982334098,0.8701957185065884,0.4922464708613076,"(0.0, 0.0, 0.0, 0.0, 0.0, 0.0, 0.0, 0.0, 0.0)",-0.000746,-0.000235,-0.001597,"(0.0, 0.0, 0.0, 0.0, 0.0, 0.0, 0.0, 0.0, 0.0)",0.071,0.408,-9.817,"(0.0, 0.0, 0.0, 0.0, 0.0, 0.0, 0.0, 0.0, 0.0)",0,0,0,,-0.3473,-0.1082,0.1443,"(0.0, 0.0, 0.0, 0.0, 0.0, 0.0, 0.0, 0.0, 0.0)"
1666913729.82841,0,1666913729,827450990,IMU1_Frame,0,0,0,,-0.015127636591725002,-0.014971068792194762,0.8701912043792344,0.4922542935631803,"(0.0, 0.0, 0.0, 0.0, 0.0, 0.0, 0.0, 0.0, 0.0)",-0.001187,-0.000468,-0.000787,"(0.0, 0.0, 0.0, 0.0, 0.0, 0.0, 0.0, 0.0, 0.0)",0.105,0.404,-9.829,"(0.0, 0.0, 0.0, 0.0, 0.0, 0.0, 0.0, 0.0, 0.0)",0,0,0,,-0.3482,-0.1071,0.1419,"(0.0, 0.0, 0.0, 0.0, 0.0, 0.0, 0.0, 0.0, 0.0)"
1666913729.853743,0,1666913729,852453470,IMU1_Frame,0,0,0,,-0.015120174444477134,-0.014975234375491852,0.8701868645688751,0.4922620678174972,"(0.0, 0.0, 0.0, 0.0, 0.0, 0.0, 0.0, 0.0, 0.0)",0.000816,0.000522,-0.001008,"(0.0, 0.0, 0.0, 0.0, 0.0, 0.0, 0.0, 0.0, 0.0)",0.109,0.424,-9.878,"(0.0, 0.0, 0.0, 0.0, 0.0, 0.0, 0.0, 0.0, 0.0)",0,0,0,,-0.3482,-0.1072,0.1372,"(0.0, 0.0, 0.0, 0.0, 0.0, 0.0, 0.0, 0.0, 0.0)"
1666913729.8780057,0,1666913729,877312183,IMU1_Frame,0,0,0,,-0.015132193744914722,-0.014978398538121223,0.8701824821104658,0.4922693491552855,"(0.0, 0.0, 0.0, 0.0, 0.0, 0.0, 0.0, 0.0, 0.0)",0.000636,-0.000504,-0.000744,"(0.0, 0.0, 0.0, 0.0, 0.0, 0.0, 0.0, 0.0, 0.0)",0.127,0.397,-9.819,"(0.0, 0.0, 0.0, 0.0, 0.0, 0.0, 0.0, 0.0, 0.0)",0,0,0,,-0.3474,-0.1131,0.1396,"(0.0, 0.0, 0.0, 0.0, 0.0, 0.0, 0.0, 0.0, 0.0)"
1666913729.9034944,0,1666913729,902619838,IMU1_Frame,0,0,0,,-0.015147379251086328,-0.014969803208148887,0.8701825700860886,0.4922689880665877,"(0.0, 0.0, 0.0, 0.0, 0.0, 0.0, 0.0, 0.0, 0.0)",0.000483,0.001974,-0.000796,"(0.0, 0.0, 0.0, 0.0, 0.0, 0.0, 0.0, 0.0, 0.0)",0.138,0.4,-9.828,"(0.0, 0.0, 0.0, 0.0, 0.0, 0.0, 0.0, 0.0, 0.0)",0,0,0,,-0.3493,-0.1141,0.1325,"(0.0, 0.0, 0.0, 0.0, 0.0, 0.0, 0.0, 0.0, 0.0)"
1666913729.928068,0,1666913729,927245140,IMU1_Frame,0,0,0,,-0.015158268897895278,-0.014953614096810761,0.8701827883246736,0.49226875912753115,"(0.0, 0.0, 0.0, 0.0, 0.0, 0.0, 0.0, 0.0, 0.0)",-0.00051,-0.001141,0.000161,"(0.0, 0.0, 0.0, 0.0, 0.0, 0.0, 0.0, 0.0, 0.0)",0.127,0.414,-9.841,"(0.0, 0.0, 0.0, 0.0, 0.0, 0.0, 0.0, 0.0, 0.0)",0,0,0,,-0.3483,-0.1091,0.1372,"(0.0, 0.0, 0.0, 0.0, 0.0, 0.0, 0.0, 0.0, 0.0)"
1666913729.9535408,0,1666913729,952410936,IMU1_Frame,0,0,0,,-0.015169288898282406,-0.014937292601802042,0.8701787101954377,0.49227612402660076,"(0.0, 0.0, 0.0, 0.0, 0.0, 0.0, 0.0, 0.0, 0.0)",0.000339,-0.000983,-0.000329,"(0.0, 0.0, 0.0, 0.0, 0.0, 0.0, 0.0, 0.0, 0.0)",0.115,0.42,-9.861,"(0.0, 0.0, 0.0, 0.0, 0.0, 0.0, 0.0, 0.0, 0.0)",0,0,0,,-0.349,-0.0953,0.1405,"(0.0, 0.0, 0.0, 0.0, 0.0, 0.0, 0.0, 0.0, 0.0)"
1666913729.977727,0,1666913729,977074146,IMU1_Frame,0,0,0,,-0.015169288898282406,-0.014937292601802042,0.8701787101954377,0.49227612402660076,"(0.0, 0.0, 0.0, 0.0, 0.0, 0.0, 0.0, 0.0, 0.0)",0.000939,-0.000357,-0.000903,"(0.0, 0.0, 0.0, 0.0, 0.0, 0.0, 0.0, 0.0, 0.0)",0.151,0.399,-9.851,"(0.0, 0.0, 0.0, 0.0, 0.0, 0.0, 0.0, 0.0, 0.0)",0,0,0,,-0.3472,-0.1052,0.1431,"(0.0, 0.0, 0.0, 0.0, 0.0, 0.0, 0.0, 0.0, 0.0)"
1666913730.0030174,0,1666913730,2367258,IMU1_Frame,0,0,0,,-0.015166122561001326,-0.014949051730957114,0.8701742402030068,0.4922837659987679,"(0.0, 0.0, 0.0, 0.0, 0.0, 0.0, 0.0, 0.0, 0.0)",-0.000434,-0.000281,-0.000997,"(0.0, 0.0, 0.0, 0.0, 0.0, 0.0, 0.0, 0.0, 0.0)",0.139,0.393,-9.867,"(0.0, 0.0, 0.0, 0.0, 0.0, 0.0, 0.0, 0.0, 0.0)",0,0,0,,-0.3501,-0.1071,0.1359,"(0.0, 0.0, 0.0, 0.0, 0.0, 0.0, 0.0, 0.0, 0.0)"
1666913730.0279853,0,1666913730,27186155,IMU1_Frame,0,0,0,,-0.015178141702861825,-0.014952215176830172,0.8701698573908583,0.4922910466016288,"(0.0, 0.0, 0.0, 0.0, 0.0, 0.0, 0.0, 0.0, 0.0)",0.000107,-0.000962,-0.001887,"(0.0, 0.0, 0.0, 0.0, 0.0, 0.0, 0.0, 0.0, 0.0)",0.131,0.415,-9.859,"(0.0, 0.0, 0.0, 0.0, 0.0, 0.0, 0.0, 0.0, 0.0)",0,0,0,,-0.3501,-0.1061,0.1441,"(0.0, 0.0, 0.0, 0.0, 0.0, 0.0, 0.0, 0.0, 0.0)"
1666913730.0528078,0,1666913730,52167415,IMU1_Frame,0,0,0,,-0.015170679587106446,-0.014956380657136028,0.8701655176119913,0.4922988209589366,"(0.0, 0.0, 0.0, 0.0, 0.0, 0.0, 0.0, 0.0, 0.0)",0.00088,0.000154,-0.001227,"(0.0, 0.0, 0.0, 0.0, 0.0, 0.0, 0.0, 0.0, 0.0)",0.144,0.455,-9.832,"(0.0, 0.0, 0.0, 0.0, 0.0, 0.0, 0.0, 0.0, 0.0)",0,0,0,,-0.3491,-0.1022,0.1418,"(0.0, 0.0, 0.0, 0.0, 0.0, 0.0, 0.0, 0.0, 0.0)"
1666913730.0786896,0,1666913730,77353954,IMU1_Frame,0,0,0,,-0.01515132879371876,-0.014957250677833756,0.8701612644271833,0.49230690811569006,"(0.0, 0.0, 0.0, 0.0, 0.0, 0.0, 0.0, 0.0, 0.0)",0.000539,-0.000755,-0.000245,"(0.0, 0.0, 0.0, 0.0, 0.0, 0.0, 0.0, 0.0, 0.0)",0.092,0.413,-9.805,"(0.0, 0.0, 0.0, 0.0, 0.0, 0.0, 0.0, 0.0, 0.0)",0,0,0,,-0.3511,-0.109,0.1476,"(0.0, 0.0, 0.0, 0.0, 0.0, 0.0, 0.0, 0.0, 0.0)"
1666913730.10336,0,1666913730,102304458,IMU1_Frame,0,0,0,,-0.015143866791881722,-0.01496141652160639,0.8701569243454541,0.49231468221851404,"(0.0, 0.0, 0.0, 0.0, 0.0, 0.0, 0.0, 0.0, 0.0)",-0.000147,-0.001127,0.00019,"(0.0, 0.0, 0.0, 0.0, 0.0, 0.0, 0.0, 0.0, 0.0)",0.126,0.42,-9.795,"(0.0, 0.0, 0.0, 0.0, 0.0, 0.0, 0.0, 0.0, 0.0)",0,0,0,,-0.3491,-0.1071,0.1442,"(0.0, 0.0, 0.0, 0.0, 0.0, 0.0, 0.0, 0.0, 0.0)"
1666913730.1280062,0,1666913730,127332925,IMU1_Frame,0,0,0,,-0.015132977991284978,-0.014977606197777825,0.8701567057548021,0.49231491112869036,"(0.0, 0.0, 0.0, 0.0, 0.0, 0.0, 0.0, 0.0, 0.0)",2e-06,-0.000313,-0.000622,"(0.0, 0.0, 0.0, 0.0, 0.0, 0.0, 0.0, 0.0, 0.0)",0.109,0.417,-9.831,"(0.0, 0.0, 0.0, 0.0, 0.0, 0.0, 0.0, 0.0, 0.0)",0,0,0,,-0.3472,-0.0993,0.1407,"(0.0, 0.0, 0.0, 0.0, 0.0, 0.0, 0.0, 0.0, 0.0)"
1666913730.1528423,0,1666913730,152009248,IMU1_Frame,0,0,0,,-0.015121219876213775,-0.014974178751688851,0.8701524960728461,0.4923228171214122,"(0.0, 0.0, 0.0, 0.0, 0.0, 0.0, 0.0, 0.0, 0.0)",-0.000307,-0.000614,-0.000396,"(0.0, 0.0, 0.0, 0.0, 0.0, 0.0, 0.0, 0.0, 0.0)",0.086,0.398,-9.854,"(0.0, 0.0, 0.0, 0.0, 0.0, 0.0, 0.0, 0.0, 0.0)",0,0,0,,-0.3482,-0.1091,0.1395,"(0.0, 0.0, 0.0, 0.0, 0.0, 0.0, 0.0, 0.0, 0.0)"
1666913730.1780252,0,1666913730,177413702,IMU1_Frame,0,0,0,,-0.015117792930574844,-0.014986202318287177,0.8701566174952079,0.49231527206281356,"(0.0, 0.0, 0.0, 0.0, 0.0, 0.0, 0.0, 0.0, 0.0)",0.001254,-0.000841,-0.000411,"(0.0, 0.0, 0.0, 0.0, 0.0, 0.0, 0.0, 0.0, 0.0)",0.103,0.407,-9.84,"(0.0, 0.0, 0.0, 0.0, 0.0, 0.0, 0.0, 0.0, 0.0)",0,0,0,,-0.3492,-0.1091,0.1454,"(0.0, 0.0, 0.0, 0.0, 0.0, 0.0, 0.0, 0.0, 0.0)"
1666913730.2026532,0,1666913730,201982498,IMU1_Frame,0,0,0,,-0.015094146055402026,-0.014979479614807301,0.8701524942468108,0.49232348989397356,"(0.0, 0.0, 0.0, 0.0, 0.0, 0.0, 0.0, 0.0, 0.0)",0.000408,-0.000526,-0.000344,"(0.0, 0.0, 0.0, 0.0, 0.0, 0.0, 0.0, 0.0, 0.0)",0.103,0.383,-9.851,"(0.0, 0.0, 0.0, 0.0, 0.0, 0.0, 0.0, 0.0, 0.0)",0,0,0,,-0.3491,-0.1061,0.143,"(0.0, 0.0, 0.0, 0.0, 0.0, 0.0, 0.0, 0.0, 0.0)"
1666913730.2277024,0,1666913730,226998090,IMU1_Frame,0,0,0,,-0.015094146055402026,-0.014979479614807301,0.8701524942468108,0.49232348989397356,"(0.0, 0.0, 0.0, 0.0, 0.0, 0.0, 0.0, 0.0, 0.0)",-0.000249,-0.00183,0.000855,"(0.0, 0.0, 0.0, 0.0, 0.0, 0.0, 0.0, 0.0, 0.0)",0.167,0.361,-9.83,"(0.0, 0.0, 0.0, 0.0, 0.0, 0.0, 0.0, 0.0, 0.0)",0,0,0,,-0.3482,-0.1072,0.136,"(0.0, 0.0, 0.0, 0.0, 0.0, 0.0, 0.0, 0.0, 0.0)"
1666913730.2528994,0,1666913730,252099990,IMU1_Frame,0,0,0,,-0.015105165300387328,-0.014963158033589604,0.8701484168729768,0.4923308547068342,"(0.0, 0.0, 0.0, 0.0, 0.0, 0.0, 0.0, 0.0, 0.0)",0.00085,0.00147,-0.001353,"(0.0, 0.0, 0.0, 0.0, 0.0, 0.0, 0.0, 0.0, 0.0)",0.141,0.383,-9.889,"(0.0, 0.0, 0.0, 0.0, 0.0, 0.0, 0.0, 0.0, 0.0)",0,0,0,,-0.3492,-0.1091,0.1465,"(0.0, 0.0, 0.0, 0.0, 0.0, 0.0, 0.0, 0.0, 0.0)"
1666913730.2778182,0,1666913730,277175903,IMU1_Frame,0,0,0,,-0.015105165300387328,-0.014963158033589604,0.8701484168729768,0.4923308547068342,"(0.0, 0.0, 0.0, 0.0, 0.0, 0.0, 0.0, 0.0, 0.0)",0.000726,-0.000825,-0.000397,"(0.0, 0.0, 0.0, 0.0, 0.0, 0.0, 0.0, 0.0, 0.0)",0.061,0.432,-9.879,"(0.0, 0.0, 0.0, 0.0, 0.0, 0.0, 0.0, 0.0, 0.0)",0,0,0,,-0.3473,-0.1081,0.1466,"(0.0, 0.0, 0.0, 0.0, 0.0, 0.0, 0.0, 0.0, 0.0)"
1666913730.3027072,0,1666913730,301885604,IMU1_Frame,0,0,0,,-0.01511301884007812,-0.014958596070576261,0.8701398680027215,0.4923458613386968,"(0.0, 0.0, 0.0, 0.0, 0.0, 0.0, 0.0, 0.0, 0.0)",0.000921,-0.001299,-0.000955,"(0.0, 0.0, 0.0, 0.0, 0.0, 0.0, 0.0, 0.0, 0.0)",0.128,0.49,-9.832,"(0.0, 0.0, 0.0, 0.0, 0.0, 0.0, 0.0, 0.0, 0.0)",0,0,0,,-0.3483,-0.1111,0.1372,"(0.0, 0.0, 0.0, 0.0, 0.0, 0.0, 0.0, 0.0, 0.0)"
1666913730.3275948,0,1666913730,326932430,IMU1_Frame,0,0,0,,-0.015117315367672073,-0.014966189472831345,0.8701397374312125,0.49234572943398036,"(0.0, 0.0, 0.0, 0.0, 0.0, 0.0, 0.0, 0.0, 0.0)",-0.00221,-0.00056,-0.000516,"(0.0, 0.0, 0.0, 0.0, 0.0, 0.0, 0.0, 0.0, 0.0)",0.097,0.394,-9.827,"(0.0, 0.0, 0.0, 0.0, 0.0, 0.0, 0.0, 0.0, 0.0)",0,0,0,,-0.3483,-0.1111,0.1396,"(0.0, 0.0, 0.0, 0.0, 0.0, 0.0, 0.0, 0.0, 0.0)"
1666913730.3528552,0,1666913730,352002382,IMU1_Frame,0,0,0,,-0.01512616989144453,-0.01498111227473565,0.87013088290744,0.4923606522358846,"(0.0, 0.0, 0.0, 0.0, 0.0, 0.0, 0.0, 0.0, 0.0)",-8.8e-05,-0.000231,-0.001277,"(0.0, 0.0, 0.0, 0.0, 0.0, 0.0, 0.0, 0.0, 0.0)",0.163,0.437,-9.794,"(0.0, 0.0, 0.0, 0.0, 0.0, 0.0, 0.0, 0.0, 0.0)",0,0,0,,-0.3493,-0.115,0.1407,"(0.0, 0.0, 0.0, 0.0, 0.0, 0.0, 0.0, 0.0, 0.0)"
1666913730.3779938,0,1666913730,377294540,IMU1_Frame,0,0,0,,-0.015130466548112906,-0.014988705598580128,0.8701307521394405,0.492360520216403,"(0.0, 0.0, 0.0, 0.0, 0.0, 0.0, 0.0, 0.0, 0.0)",-0.000132,-0.000721,-0.000533,"(0.0, 0.0, 0.0, 0.0, 0.0, 0.0, 0.0, 0.0, 0.0)",0.138,0.393,-9.814,"(0.0, 0.0, 0.0, 0.0, 0.0, 0.0, 0.0, 0.0, 0.0)",0,0,0,,-0.3491,-0.1071,0.1453,"(0.0, 0.0, 0.0, 0.0, 0.0, 0.0, 0.0, 0.0, 0.0)"
1666913730.4030268,0,1666913730,402316331,IMU1_Frame,0,0,0,,-0.015142486334508824,-0.014991868321139523,0.8701263687998173,0.4923678008471868,"(0.0, 0.0, 0.0, 0.0, 0.0, 0.0, 0.0, 0.0, 0.0)",8.7e-05,0.000853,-8.4e-05,"(0.0, 0.0, 0.0, 0.0, 0.0, 0.0, 0.0, 0.0, 0.0)",0.108,0.401,-9.842,"(0.0, 0.0, 0.0, 0.0, 0.0, 0.0, 0.0, 0.0, 0.0)",0,0,0,,-0.3502,-0.111,0.1371,"(0.0, 0.0, 0.0, 0.0, 0.0, 0.0, 0.0, 0.0, 0.0)"
1666913730.4278603,0,1666913730,426990032,IMU1_Frame,0,0,0,,-0.015139190791076246,-0.015003760129052737,0.8701261937177296,0.49236784936719563,"(0.0, 0.0, 0.0, 0.0, 0.0, 0.0, 0.0, 0.0, 0.0)",-0.000351,-0.000819,0.000246,"(0.0, 0.0, 0.0, 0.0, 0.0, 0.0, 0.0, 0.0, 0.0)",0.127,0.387,-9.833,"(0.0, 0.0, 0.0, 0.0, 0.0, 0.0, 0.0, 0.0, 0.0)",0,0,0,,-0.3502,-0.115,0.143,"(0.0, 0.0, 0.0, 0.0, 0.0, 0.0, 0.0, 0.0, 0.0)"
1666913730.452751,0,1666913730,452070713,IMU1_Frame,0,0,0,,-0.015143487510550946,-0.015011353411975452,0.8701260627520905,0.49236771723408496,"(0.0, 0.0, 0.0, 0.0, 0.0, 0.0, 0.0, 0.0, 0.0)",0.000654,-0.000218,-0.0017,"(0.0, 0.0, 0.0, 0.0, 0.0, 0.0, 0.0, 0.0, 0.0)",0.075,0.398,-9.825,"(0.0, 0.0, 0.0, 0.0, 0.0, 0.0, 0.0, 0.0, 0.0)",0,0,0,,-0.3481,-0.1002,0.1488,"(0.0, 0.0, 0.0, 0.0, 0.0, 0.0, 0.0, 0.0, 0.0)"
1666913730.4774873,0,1666913730,476794958,IMU1_Frame,0,0,0,,-0.015131729496882327,-0.015007926602693141,0.8701218526764818,0.4923756232759378,"(0.0, 0.0, 0.0, 0.0, 0.0, 0.0, 0.0, 0.0, 0.0)",0.001499,0.000233,-0.000735,"(0.0, 0.0, 0.0, 0.0, 0.0, 0.0, 0.0, 0.0, 0.0)",0.137,0.45,-9.865,"(0.0, 0.0, 0.0, 0.0, 0.0, 0.0, 0.0, 0.0, 0.0)",0,0,0,,-0.3491,-0.1041,0.143,"(0.0, 0.0, 0.0, 0.0, 0.0, 0.0, 0.0, 0.0, 0.0)"
1666913730.5030982,0,1666913730,502315759,IMU1_Frame,0,0,0,,-0.015130728148071702,-0.014988441519838604,0.8701221586947278,0.4923757067879592,"(0.0, 0.0, 0.0, 0.0, 0.0, 0.0, 0.0, 0.0, 0.0)",0.0011,0.000129,-0.000296,"(0.0, 0.0, 0.0, 0.0, 0.0, 0.0, 0.0, 0.0, 0.0)",0.113,0.445,-9.845,"(0.0, 0.0, 0.0, 0.0, 0.0, 0.0, 0.0, 0.0, 0.0)",0,0,0,,-0.3483,-0.1101,0.1348,"(0.0, 0.0, 0.0, 0.0, 0.0, 0.0, 0.0, 0.0, 0.0)"
1666913730.527517,0,1666913730,526793003,IMU1_Frame,0,0,0,,-0.01511783777702753,-0.014965661769859072,0.870122550793023,0.4923761027407614,"(0.0, 0.0, 0.0, 0.0, 0.0, 0.0, 0.0, 0.0, 0.0)",0.00059,-9e-06,0.000203,"(0.0, 0.0, 0.0, 0.0, 0.0, 0.0, 0.0, 0.0, 0.0)",0.123,0.403,-9.861,"(0.0, 0.0, 0.0, 0.0, 0.0, 0.0, 0.0, 0.0, 0.0)",0,0,0,,-0.3491,-0.1022,0.1453,"(0.0, 0.0, 0.0, 0.0, 0.0, 0.0, 0.0, 0.0, 0.0)"
1666913730.552521,0,1666913730,551746845,IMU1_Frame,0,0,0,,-0.015109374657508147,-0.014950343410574671,0.8701185150330593,0.4923839597570465,"(0.0, 0.0, 0.0, 0.0, 0.0, 0.0, 0.0, 0.0, 0.0)",0.000407,0.000942,-0.000686,"(0.0, 0.0, 0.0, 0.0, 0.0, 0.0, 0.0, 0.0, 0.0)",0.113,0.343,-9.846,"(0.0, 0.0, 0.0, 0.0, 0.0, 0.0, 0.0, 0.0, 0.0)",0,0,0,,-0.3501,-0.1041,0.1382,"(0.0, 0.0, 0.0, 0.0, 0.0, 0.0, 0.0, 0.0, 0.0)"
1666913730.5775669,0,1666913730,576757192,IMU1_Frame,0,0,0,,-0.015101912961171533,-0.014954510279618225,0.8701141741106634,0.49239173313422746,"(0.0, 0.0, 0.0, 0.0, 0.0, 0.0, 0.0, 0.0, 0.0)",-0.000296,-0.001708,-0.001088,"(0.0, 0.0, 0.0, 0.0, 0.0, 0.0, 0.0, 0.0, 0.0)",0.113,0.351,-9.859,"(0.0, 0.0, 0.0, 0.0, 0.0, 0.0, 0.0, 0.0, 0.0)",0,0,0,,-0.3502,-0.114,0.1395,"(0.0, 0.0, 0.0, 0.0, 0.0, 0.0, 0.0, 0.0, 0.0)"
1666913730.602504,0,1666913730,601715087,IMU1_Frame,0,0,0,,-0.015113802049619887,-0.014957804734255675,0.8701140876409474,0.49239142108072753,"(0.0, 0.0, 0.0, 0.0, 0.0, 0.0, 0.0, 0.0, 0.0)",0.000108,0.000669,0.000849,"(0.0, 0.0, 0.0, 0.0, 0.0, 0.0, 0.0, 0.0, 0.0)",0.117,0.377,-9.869,"(0.0, 0.0, 0.0, 0.0, 0.0, 0.0, 0.0, 0.0, 0.0)",0,0,0,,-0.3483,-0.1111,0.1419,"(0.0, 0.0, 0.0, 0.0, 0.0, 0.0, 0.0, 0.0, 0.0)"
1666913730.6274457,0,1666913730,626633405,IMU1_Frame,0,0,0,,-0.015113932580515136,-0.014957672840882,0.8701097906820628,0.4923990142398271,"(0.0, 0.0, 0.0, 0.0, 0.0, 0.0, 0.0, 0.0, 0.0)",0.000265,5e-06,-8.1e-05,"(0.0, 0.0, 0.0, 0.0, 0.0, 0.0, 0.0, 0.0, 0.0)",0.13,0.418,-9.849,"(0.0, 0.0, 0.0, 0.0, 0.0, 0.0, 0.0, 0.0, 0.0)",0,0,0,,-0.3482,-0.1081,0.1442,"(0.0, 0.0, 0.0, 0.0, 0.0, 0.0, 0.0, 0.0, 0.0)"
1666913730.6525657,0,1666913730,651946067,IMU1_Frame,0,0,0,,-0.015118229571955615,-0.01496526598066298,0.8701096601186119,0.4923988823271348,"(0.0, 0.0, 0.0, 0.0, 0.0, 0.0, 0.0, 0.0, 0.0)",-0.000464,-0.000588,-0.000823,"(0.0, 0.0, 0.0, 0.0, 0.0, 0.0, 0.0, 0.0, 0.0)",0.118,0.426,-9.804,"(0.0, 0.0, 0.0, 0.0, 0.0, 0.0, 0.0, 0.0, 0.0)",0,0,0,,-0.3483,-0.1101,0.1395,"(0.0, 0.0, 0.0, 0.0, 0.0, 0.0, 0.0, 0.0, 0.0)"
1666913730.6776645,0,1666913730,677032232,IMU1_Frame,0,0,0,,-0.015122657224513985,-0.014972727149794298,0.8701052324660534,0.4924063434962661,"(0.0, 0.0, 0.0, 0.0, 0.0, 0.0, 0.0, 0.0, 0.0)",-0.000621,-0.001056,0.00021,"(0.0, 0.0, 0.0, 0.0, 0.0, 0.0, 0.0, 0.0, 0.0)",0.138,0.454,-9.836,"(0.0, 0.0, 0.0, 0.0, 0.0, 0.0, 0.0, 0.0, 0.0)",0,0,0,,-0.3482,-0.1081,0.1407,"(0.0, 0.0, 0.0, 0.0, 0.0, 0.0, 0.0, 0.0, 0.0)"
1666913730.702322,0,1666913730,701644659,IMU1_Frame,0,0,0,,-0.015134546359559586,-0.014976021393907326,0.870105145886793,0.49240603102624775,"(0.0, 0.0, 0.0, 0.0, 0.0, 0.0, 0.0, 0.0, 0.0)",0.000117,-0.000889,-0.001061,"(0.0, 0.0, 0.0, 0.0, 0.0, 0.0, 0.0, 0.0, 0.0)",0.118,0.452,-9.823,"(0.0, 0.0, 0.0, 0.0, 0.0, 0.0, 0.0, 0.0, 0.0)",0,0,0,,-0.3492,-0.1081,0.1371,"(0.0, 0.0, 0.0, 0.0, 0.0, 0.0, 0.0, 0.0, 0.0)"
1666913730.7288456,0,1666913730,727698802,IMU1_Frame,0,0,0,,-0.015131251334161953,-0.014987913348658415,0.8701049710101421,0.4924060794811081,"(0.0, 0.0, 0.0, 0.0, 0.0, 0.0, 0.0, 0.0, 0.0)",7e-05,-0.001178,-0.000619,"(0.0, 0.0, 0.0, 0.0, 0.0, 0.0, 0.0, 0.0, 0.0)",0.118,0.425,-9.865,"(0.0, 0.0, 0.0, 0.0, 0.0, 0.0, 0.0, 0.0, 0.0)",0,0,0,,-0.3492,-0.112,0.1431,"(0.0, 0.0, 0.0, 0.0, 0.0, 0.0, 0.0, 0.0, 0.0)"
1666913730.7524352,0,1666913730,751797676,IMU1_Frame,0,0,0,,-0.015139976365366703,-0.015002967422310094,0.8701004122046839,0.4924134083932122,"(0.0, 0.0, 0.0, 0.0, 0.0, 0.0, 0.0, 0.0, 0.0)",-0.000578,0.000629,1.7e-05,"(0.0, 0.0, 0.0, 0.0, 0.0, 0.0, 0.0, 0.0, 0.0)",0.124,0.419,-9.84,"(0.0, 0.0, 0.0, 0.0, 0.0, 0.0, 0.0, 0.0, 0.0)",0,0,0,,-0.3472,-0.1042,0.1454,"(0.0, 0.0, 0.0, 0.0, 0.0, 0.0, 0.0, 0.0, 0.0)"
1666913730.7782695,0,1666913730,777406454,IMU1_Frame,0,0,0,,-0.015147699290267476,-0.014998536313281631,0.8700961592851856,0.4924208207537934,"(0.0, 0.0, 0.0, 0.0, 0.0, 0.0, 0.0, 0.0, 0.0)",0.001105,-0.000502,-0.001085,"(0.0, 0.0, 0.0, 0.0, 0.0, 0.0, 0.0, 0.0, 0.0)",0.104,0.406,-9.858,"(0.0, 0.0, 0.0, 0.0, 0.0, 0.0, 0.0, 0.0, 0.0)",0,0,0,,-0.3464,-0.1121,0.1409,"(0.0, 0.0, 0.0, 0.0, 0.0, 0.0, 0.0, 0.0, 0.0)"
1666913730.8031652,0,1666913730,802647829,IMU1_Frame,0,0,0,,-0.015147830176611511,-0.014998404124097173,0.8700918620697412,0.4924284137564375,"(0.0, 0.0, 0.0, 0.0, 0.0, 0.0, 0.0, 0.0, 0.0)",0.000379,0.000773,0.000143,"(0.0, 0.0, 0.0, 0.0, 0.0, 0.0, 0.0, 0.0, 0.0)",0.147,0.42,-9.842,"(0.0, 0.0, 0.0, 0.0, 0.0, 0.0, 0.0, 0.0, 0.0)",0,0,0,,-0.3482,-0.1081,0.1442,"(0.0, 0.0, 0.0, 0.0, 0.0, 0.0, 0.0, 0.0, 0.0)"
1666913730.827894,0,1666913730,827329874,IMU1_Frame,0,0,0,,-0.01514023821423983,-0.015002703177588776,0.8700918178369031,0.49242859443522846,"(0.0, 0.0, 0.0, 0.0, 0.0, 0.0, 0.0, 0.0, 0.0)",0.000658,-3.7e-05,0.000533,"(0.0, 0.0, 0.0, 0.0, 0.0, 0.0, 0.0, 0.0, 0.0)",0.096,0.439,-9.86,"(0.0, 0.0, 0.0, 0.0, 0.0, 0.0, 0.0, 0.0, 0.0)",0,0,0,,-0.3501,-0.1071,0.1441,"(0.0, 0.0, 0.0, 0.0, 0.0, 0.0, 0.0, 0.0, 0.0)"
1666913730.8527105,0,1666913730,852084398,IMU1_Frame,0,0,0,,-0.01514023821423983,-0.015002703177588776,0.8700918178369031,0.49242859443522846,"(0.0, 0.0, 0.0, 0.0, 0.0, 0.0, 0.0, 0.0, 0.0)",-0.001459,-0.000372,-0.000143,"(0.0, 0.0, 0.0, 0.0, 0.0, 0.0, 0.0, 0.0, 0.0)",0.111,0.422,-9.875,"(0.0, 0.0, 0.0, 0.0, 0.0, 0.0, 0.0, 0.0, 0.0)",0,0,0,,-0.3502,-0.111,0.143,"(0.0, 0.0, 0.0, 0.0, 0.0, 0.0, 0.0, 0.0, 0.0)"
1666913730.8780985,0,1666913730,877508878,IMU1_Frame,0,0,0,,-0.015136071819957408,-0.014994978106936084,0.8700876514426207,0.49243631950588124,"(0.0, 0.0, 0.0, 0.0, 0.0, 0.0, 0.0, 0.0, 0.0)",-3.4e-05,0.001045,0.000235,"(0.0, 0.0, 0.0, 0.0, 0.0, 0.0, 0.0, 0.0, 0.0)",0.129,0.408,-9.859,"(0.0, 0.0, 0.0, 0.0, 0.0, 0.0, 0.0, 0.0, 0.0)",0,0,0,,-0.3482,-0.1081,0.1431,"(0.0, 0.0, 0.0, 0.0, 0.0, 0.0, 0.0, 0.0, 0.0)"
1666913730.9033358,0,1666913730,902355670,IMU1_Frame,0,0,0,,-0.015127477182520707,-0.014979792210354372,0.8700879130218379,0.4924365836051679,"(0.0, 0.0, 0.0, 0.0, 0.0, 0.0, 0.0, 0.0, 0.0)",-0.000201,0.000186,0.000519,"(0.0, 0.0, 0.0, 0.0, 0.0, 0.0, 0.0, 0.0, 0.0)",0.114,0.391,-9.815,"(0.0, 0.0, 0.0, 0.0, 0.0, 0.0, 0.0, 0.0, 0.0)",0,0,0,,-0.3501,-0.1061,0.1394,"(0.0, 0.0, 0.0, 0.0, 0.0, 0.0, 0.0, 0.0, 0.0)"
1666913730.9286249,0,1666913730,927687644,IMU1_Frame,0,0,0,,-0.015127477182520707,-0.014979792210354372,0.8700879130218379,0.4924365836051679,"(0.0, 0.0, 0.0, 0.0, 0.0, 0.0, 0.0, 0.0, 0.0)",-0.000717,-0.002046,3.7e-05,"(0.0, 0.0, 0.0, 0.0, 0.0, 0.0, 0.0, 0.0, 0.0)",0.132,0.363,-9.816,"(0.0, 0.0, 0.0, 0.0, 0.0, 0.0, 0.0, 0.0, 0.0)",0,0,0,,-0.3483,-0.115,0.1396,"(0.0, 0.0, 0.0, 0.0, 0.0, 0.0, 0.0, 0.0, 0.0)"
1666913730.953189,0,1666913730,952311277,IMU1_Frame,0,0,0,,-0.015130771793231476,-0.014967900139066796,0.8700880877964023,0.49243653518516284,"(0.0, 0.0, 0.0, 0.0, 0.0, 0.0, 0.0, 0.0, 0.0)",-0.000905,-0.000416,0.001139,"(0.0, 0.0, 0.0, 0.0, 0.0, 0.0, 0.0, 0.0, 0.0)",0.12,0.358,-9.856,"(0.0, 0.0, 0.0, 0.0, 0.0, 0.0, 0.0, 0.0, 0.0)",0,0,0,,-0.3463,-0.1092,0.1467,"(0.0, 0.0, 0.0, 0.0, 0.0, 0.0, 0.0, 0.0, 0.0)"
1666913730.979519,0,1666913730,977676868,IMU1_Frame,0,0,0,,-0.015150514187096498,-0.014966630420155802,0.8700794504258365,0.49245122787988577,"(0.0, 0.0, 0.0, 0.0, 0.0, 0.0, 0.0, 0.0, 0.0)",0.00012,0.000842,-0.002215,"(0.0, 0.0, 0.0, 0.0, 0.0, 0.0, 0.0, 0.0, 0.0)",0.132,0.415,-9.851,"(0.0, 0.0, 0.0, 0.0, 0.0, 0.0, 0.0, 0.0, 0.0)",0,0,0,,-0.3454,-0.1122,0.1433,"(0.0, 0.0, 0.0, 0.0, 0.0, 0.0, 0.0, 0.0, 0.0)"
1666913731.003262,0,1666913731,2489805,IMU1_Frame,0,0,0,,-0.015162534120351647,-0.014969791721225385,0.8700750662699025,0.4924585078463941,"(0.0, 0.0, 0.0, 0.0, 0.0, 0.0, 0.0, 0.0, 0.0)",0.000924,-0.001112,-0.001913,"(0.0, 0.0, 0.0, 0.0, 0.0, 0.0, 0.0, 0.0, 0.0)",0.129,0.434,-9.825,"(0.0, 0.0, 0.0, 0.0, 0.0, 0.0, 0.0, 0.0, 0.0)",0,0,0,,-0.3501,-0.1061,0.1441,"(0.0, 0.0, 0.0, 0.0, 0.0, 0.0, 0.0, 0.0, 0.0)"
1666913731.0280316,0,1666913731,27217388,IMU1_Frame,0,0,0,,-0.015182145875058995,-0.01496865342129402,0.8700707258675926,0.4924656067682512,"(0.0, 0.0, 0.0, 0.0, 0.0, 0.0, 0.0, 0.0, 0.0)",0.001726,0.000477,-0.000736,"(0.0, 0.0, 0.0, 0.0, 0.0, 0.0, 0.0, 0.0, 0.0)",0.087,0.431,-9.817,"(0.0, 0.0, 0.0, 0.0, 0.0, 0.0, 0.0, 0.0, 0.0)",0,0,0,,-0.3529,-0.106,0.1451,"(0.0, 0.0, 0.0, 0.0, 0.0, 0.0, 0.0, 0.0, 0.0)"
1666913731.0530014,0,1666913731,52288770,IMU1_Frame,0,0,0,,-0.015170256529171002,-0.014965360012500865,0.8700708126262213,0.4924659199705925,"(0.0, 0.0, 0.0, 0.0, 0.0, 0.0, 0.0, 0.0, 0.0)",0.000639,-0.001193,-0.000704,"(0.0, 0.0, 0.0, 0.0, 0.0, 0.0, 0.0, 0.0, 0.0)",0.141,0.401,-9.76,"(0.0, 0.0, 0.0, 0.0, 0.0, 0.0, 0.0, 0.0, 0.0)",0,0,0,,-0.3501,-0.109,0.1477,"(0.0, 0.0, 0.0, 0.0, 0.0, 0.0, 0.0, 0.0, 0.0)"
1666913731.0784853,0,1666913731,77256202,IMU1_Frame,0,0,0,,-0.015146738898542109,-0.01495850883218799,0.870062390675838,0.49248173128117384,"(0.0, 0.0, 0.0, 0.0, 0.0, 0.0, 0.0, 0.0, 0.0)",0.001416,-0.001082,-0.001226,"(0.0, 0.0, 0.0, 0.0, 0.0, 0.0, 0.0, 0.0, 0.0)",0.131,0.425,-9.806,"(0.0, 0.0, 0.0, 0.0, 0.0, 0.0, 0.0, 0.0, 0.0)",0,0,0,,-0.3473,-0.1111,0.1408,"(0.0, 0.0, 0.0, 0.0, 0.0, 0.0, 0.0, 0.0, 0.0)"
1666913731.1028507,0,1666913731,102140426,IMU1_Frame,0,0,0,,-0.015127257772324546,-0.014959515146681512,0.8700624332665543,0.4924822242448439,"(0.0, 0.0, 0.0, 0.0, 0.0, 0.0, 0.0, 0.0, 0.0)",0.001172,-0.000764,-0.000344,"(0.0, 0.0, 0.0, 0.0, 0.0, 0.0, 0.0, 0.0, 0.0)",0.107,0.423,-9.758,"(0.0, 0.0, 0.0, 0.0, 0.0, 0.0, 0.0, 0.0, 0.0)",0,0,0,,-0.3491,-0.1071,0.1453,"(0.0, 0.0, 0.0, 0.0, 0.0, 0.0, 0.0, 0.0, 0.0)"
1666913731.1278079,0,1666913731,127145051,IMU1_Frame,0,0,0,,-0.015111070622934356,-0.014948629210190257,0.8700626502455976,0.49248266840262717,"(0.0, 0.0, 0.0, 0.0, 0.0, 0.0, 0.0, 0.0, 0.0)",0.002066,-0.001258,9.7e-05,"(0.0, 0.0, 0.0, 0.0, 0.0, 0.0, 0.0, 0.0, 0.0)",0.084,0.376,-9.868,"(0.0, 0.0, 0.0, 0.0, 0.0, 0.0, 0.0, 0.0, 0.0)",0,0,0,,-0.3493,-0.117,0.1396,"(0.0, 0.0, 0.0, 0.0, 0.0, 0.0, 0.0, 0.0, 0.0)"
1666913731.1532643,0,1666913731,152567625,IMU1_Frame,0,0,0,,-0.015103609399362054,-0.01495279692570959,0.8700583084413679,0.4924904412872961,"(0.0, 0.0, 0.0, 0.0, 0.0, 0.0, 0.0, 0.0, 0.0)",-0.00012,0.000186,0.000346,"(0.0, 0.0, 0.0, 0.0, 0.0, 0.0, 0.0, 0.0, 0.0)",0.106,0.387,-9.806,"(0.0, 0.0, 0.0, 0.0, 0.0, 0.0, 0.0, 0.0, 0.0)",0,0,0,,-0.3482,-0.1091,0.1431,"(0.0, 0.0, 0.0, 0.0, 0.0, 0.0, 0.0, 0.0, 0.0)"
1666913731.1781607,0,1666913731,177415370,IMU1_Frame,0,0,0,,-0.015103739886556316,-0.014952665121283754,0.8700540106183712,0.4924980339596265,"(0.0, 0.0, 0.0, 0.0, 0.0, 0.0, 0.0, 0.0, 0.0)",2e-06,0.00021,-0.000121,"(0.0, 0.0, 0.0, 0.0, 0.0, 0.0, 0.0, 0.0, 0.0)",0.098,0.389,-9.833,"(0.0, 0.0, 0.0, 0.0, 0.0, 0.0, 0.0, 0.0, 0.0)",0,0,0,,-0.3501,-0.1071,0.1382,"(0.0, 0.0, 0.0, 0.0, 0.0, 0.0, 0.0, 0.0, 0.0)"
1666913731.2029843,0,1666913731,202048540,IMU1_Frame,0,0,0,,-0.015108168294409533,-0.014960125931221337,0.8700495822105178,0.4925054947695641,"(0.0, 0.0, 0.0, 0.0, 0.0, 0.0, 0.0, 0.0, 0.0)",-0.001263,0.000591,-0.000974,"(0.0, 0.0, 0.0, 0.0, 0.0, 0.0, 0.0, 0.0, 0.0)",0.1,0.392,-9.84,"(0.0, 0.0, 0.0, 0.0, 0.0, 0.0, 0.0, 0.0, 0.0)",0,0,0,,-0.3483,-0.115,0.142,"(0.0, 0.0, 0.0, 0.0, 0.0, 0.0, 0.0, 0.0, 0.0)"
1666913731.2278228,0,1666913731,227110385,IMU1_Frame,0,0,0,,-0.015115890405819288,-0.0149556943035914,0.8700453283474585,0.4925129071261991,"(0.0, 0.0, 0.0, 0.0, 0.0, 0.0, 0.0, 0.0, 0.0)",-0.000385,0.00313,-0.000828,"(0.0, 0.0, 0.0, 0.0, 0.0, 0.0, 0.0, 0.0, 0.0)",0.128,0.402,-9.884,"(0.0, 0.0, 0.0, 0.0, 0.0, 0.0, 0.0, 0.0, 0.0)",0,0,0,,-0.3473,-0.1082,0.1372,"(0.0, 0.0, 0.0, 0.0, 0.0, 0.0, 0.0, 0.0, 0.0)"
1666913731.252719,0,1666913731,252061367,IMU1_Frame,0,0,0,,-0.015143093526472837,-0.014950255377040339,0.8700410317770337,0.49251982661306576,"(0.0, 0.0, 0.0, 0.0, 0.0, 0.0, 0.0, 0.0, 0.0)",-0.000399,0.000988,-0.001569,"(0.0, 0.0, 0.0, 0.0, 0.0, 0.0, 0.0, 0.0, 0.0)",0.148,0.403,-9.868,"(0.0, 0.0, 0.0, 0.0, 0.0, 0.0, 0.0, 0.0, 0.0)",0,0,0,,-0.3501,-0.1041,0.1347,"(0.0, 0.0, 0.0, 0.0, 0.0, 0.0, 0.0, 0.0, 0.0)"
1666913731.2785904,0,1666913731,277588367,IMU1_Frame,0,0,0,,-0.015158406948390404,-0.014941523386736195,0.8700368213652346,0.4925270581870091,"(0.0, 0.0, 0.0, 0.0, 0.0, 0.0, 0.0, 0.0, 0.0)",-0.000687,-5.9e-05,-0.000785,"(0.0, 0.0, 0.0, 0.0, 0.0, 0.0, 0.0, 0.0, 0.0)",0.174,0.426,-9.915,"(0.0, 0.0, 0.0, 0.0, 0.0, 0.0, 0.0, 0.0, 0.0)",0,0,0,,-0.3491,-0.1061,0.1477,"(0.0, 0.0, 0.0, 0.0, 0.0, 0.0, 0.0, 0.0, 0.0)"
1666913731.303078,0,1666913731,301992654,IMU1_Frame,0,0,0,,-0.015174594638470457,-0.014952408470005913,0.8700366042634203,0.4925266128853145,"(0.0, 0.0, 0.0, 0.0, 0.0, 0.0, 0.0, 0.0, 0.0)",-0.000138,-0.000421,-6.5e-05,"(0.0, 0.0, 0.0, 0.0, 0.0, 0.0, 0.0, 0.0, 0.0)",0.2,0.437,-9.848,"(0.0, 0.0, 0.0, 0.0, 0.0, 0.0, 0.0, 0.0, 0.0)",0,0,0,,-0.3473,-0.1141,0.1444,"(0.0, 0.0, 0.0, 0.0, 0.0, 0.0, 0.0, 0.0, 0.0)"
1666913731.3277667,0,1666913731,327019453,IMU1_Frame,0,0,0,,-0.015198504325833855,-0.014958860994594647,0.8700321325992441,0.49253357874241777,"(0.0, 0.0, 0.0, 0.0, 0.0, 0.0, 0.0, 0.0, 0.0)",-0.000144,-0.001689,-0.000644,"(0.0, 0.0, 0.0, 0.0, 0.0, 0.0, 0.0, 0.0, 0.0)",0.187,0.435,-9.863,"(0.0, 0.0, 0.0, 0.0, 0.0, 0.0, 0.0, 0.0, 0.0)",0,0,0,,-0.3502,-0.112,0.1383,"(0.0, 0.0, 0.0, 0.0, 0.0, 0.0, 0.0, 0.0, 0.0)"
1666913731.352865,0,1666913731,352108001,IMU1_Frame,0,0,0,,-0.015210393919408597,-0.014962153466561011,0.8700320457502855,0.492533265118238,"(0.0, 0.0, 0.0, 0.0, 0.0, 0.0, 0.0, 0.0, 0.0)",0.000744,-0.000872,6.2e-05,"(0.0, 0.0, 0.0, 0.0, 0.0, 0.0, 0.0, 0.0, 0.0)",0.164,0.442,-9.819,"(0.0, 0.0, 0.0, 0.0, 0.0, 0.0, 0.0, 0.0, 0.0)",0,0,0,,-0.3511,-0.109,0.1464,"(0.0, 0.0, 0.0, 0.0, 0.0, 0.0, 0.0, 0.0, 0.0)"
1666913731.3776073,0,1666913731,376954793,IMU1_Frame,0,0,0,,-0.01521798534609093,-0.014957853475301625,0.8700320894088869,0.49253308410727503,"(0.0, 0.0, 0.0, 0.0, 0.0, 0.0, 0.0, 0.0, 0.0)",0.001339,-0.000419,0.000519,"(0.0, 0.0, 0.0, 0.0, 0.0, 0.0, 0.0, 0.0, 0.0)",0.148,0.427,-9.828,"(0.0, 0.0, 0.0, 0.0, 0.0, 0.0, 0.0, 0.0, 0.0)",0,0,0,,-0.3492,-0.115,0.1454,"(0.0, 0.0, 0.0, 0.0, 0.0, 0.0, 0.0, 0.0, 0.0)"
1666913731.4028668,0,1666913731,402206897,IMU1_Frame,0,0,0,,-0.015198765404895682,-0.01495859572837443,0.8700235361341054,0.4925487635927118,"(0.0, 0.0, 0.0, 0.0, 0.0, 0.0, 0.0, 0.0, 0.0)",0.002279,-0.001595,-0.001581,"(0.0, 0.0, 0.0, 0.0, 0.0, 0.0, 0.0, 0.0, 0.0)",0.107,0.411,-9.838,"(0.0, 0.0, 0.0, 0.0, 0.0, 0.0, 0.0, 0.0, 0.0)",0,0,0,,-0.3482,-0.1022,0.1406,"(0.0, 0.0, 0.0, 0.0, 0.0, 0.0, 0.0, 0.0, 0.0)"
1666913731.4280994,0,1666913731,427065134,IMU1_Frame,0,0,0,,-0.015167525243274752,-0.014956178954208288,0.8700193674954855,0.49255716325299703,"(0.0, 0.0, 0.0, 0.0, 0.0, 0.0, 0.0, 0.0, 0.0)",0.002716,-0.001371,-0.000689,"(0.0, 0.0, 0.0, 0.0, 0.0, 0.0, 0.0, 0.0, 0.0)",0.104,0.401,-9.803,"(0.0, 0.0, 0.0, 0.0, 0.0, 0.0, 0.0, 0.0, 0.0)",0,0,0,,-0.3483,-0.115,0.1455,"(0.0, 0.0, 0.0, 0.0, 0.0, 0.0, 0.0, 0.0, 0.0)"
1666913731.4530303,0,1666913731,452014684,IMU1_Frame,0,0,0,,-0.015124264797381243,-0.014950602634873843,0.870019583273802,0.4925582816431703,"(0.0, 0.0, 0.0, 0.0, 0.0, 0.0, 0.0, 0.0, 0.0)",0.001422,-0.0024,0.000336,"(0.0, 0.0, 0.0, 0.0, 0.0, 0.0, 0.0, 0.0, 0.0)",0.067,0.394,-9.808,"(0.0, 0.0, 0.0, 0.0, 0.0, 0.0, 0.0, 0.0, 0.0)",0,0,0,,-0.3492,-0.111,0.1454,"(0.0, 0.0, 0.0, 0.0, 0.0, 0.0, 0.0, 0.0, 0.0)"
1666913731.4771476,0,1666913731,476751804,IMU1_Frame,0,0,0,,-0.015085302675982444,-0.014952618650740927,0.8700196678432663,0.492559265880312,"(0.0, 0.0, 0.0, 0.0, 0.0, 0.0, 0.0, 0.0, 0.0)",0.001752,-0.000622,8.2e-05,"(0.0, 0.0, 0.0, 0.0, 0.0, 0.0, 0.0, 0.0, 0.0)",0.039,0.394,-9.82,"(0.0, 0.0, 0.0, 0.0, 0.0, 0.0, 0.0, 0.0, 0.0)",0,0,0,,-0.3481,-0.1012,0.143,"(0.0, 0.0, 0.0, 0.0, 0.0, 0.0, 0.0, 0.0, 0.0)"
1666913731.5023742,0,1666913731,501972913,IMU1_Frame,0,0,0,,-0.015065821597235431,-0.014953626652446556,0.8700197098562371,0.4925597573200724,"(0.0, 0.0, 0.0, 0.0, 0.0, 0.0, 0.0, 0.0, 0.0)",-0.000989,0.00062,-0.000415,"(0.0, 0.0, 0.0, 0.0, 0.0, 0.0, 0.0, 0.0, 0.0)",0.056,0.359,-9.81,"(0.0, 0.0, 0.0, 0.0, 0.0, 0.0, 0.0, 0.0, 0.0)",0,0,0,,-0.3491,-0.1051,0.1453,"(0.0, 0.0, 0.0, 0.0, 0.0, 0.0, 0.0, 0.0, 0.0)"
1666913731.5271115,0,1666913731,526716947,IMU1_Frame,0,0,0,,-0.015074679637215736,-0.014968548258148954,0.8700108518162569,0.4925746789257747,"(0.0, 0.0, 0.0, 0.0, 0.0, 0.0, 0.0, 0.0, 0.0)",-0.001484,0.000487,-0.000299,"(0.0, 0.0, 0.0, 0.0, 0.0, 0.0, 0.0, 0.0, 0.0)",0.072,0.365,-9.866,"(0.0, 0.0, 0.0, 0.0, 0.0, 0.0, 0.0, 0.0, 0.0)",0,0,0,,-0.3483,-0.115,0.1478,"(0.0, 0.0, 0.0, 0.0, 0.0, 0.0, 0.0, 0.0, 0.0)"
1666913731.552141,0,1666913731,551740407,IMU1_Frame,0,0,0,,-0.015102757728863225,-0.014982724466580565,0.8700105484640995,0.49257392362744734,"(0.0, 0.0, 0.0, 0.0, 0.0, 0.0, 0.0, 0.0, 0.0)",-0.002793,0.001499,-0.000946,"(0.0, 0.0, 0.0, 0.0, 0.0, 0.0, 0.0, 0.0, 0.0)",0.095,0.379,-9.879,"(0.0, 0.0, 0.0, 0.0, 0.0, 0.0, 0.0, 0.0, 0.0)",0,0,0,,-0.3492,-0.114,0.1419,"(0.0, 0.0, 0.0, 0.0, 0.0, 0.0, 0.0, 0.0, 0.0)"
1666913731.5773697,0,1666913731,576946973,IMU1_Frame,0,0,0,,-0.01513109752967013,-0.014996636579635727,0.870001647544872,0.4925883515147859,"(0.0, 0.0, 0.0, 0.0, 0.0, 0.0, 0.0, 0.0, 0.0)",-0.002108,0.001653,-3.3e-05,"(0.0, 0.0, 0.0, 0.0, 0.0, 0.0, 0.0, 0.0, 0.0)",0.142,0.407,-9.878,"(0.0, 0.0, 0.0, 0.0, 0.0, 0.0, 0.0, 0.0, 0.0)",0,0,0,,-0.3493,-0.1238,0.1561,"(0.0, 0.0, 0.0, 0.0, 0.0, 0.0, 0.0, 0.0, 0.0)"
1666913731.6021862,0,1666913731,601728200,IMU1_Frame,0,0,0,,-0.01516589165459227,-0.014986894647727275,0.8699973949027244,0.4925950888728103,"(0.0, 0.0, 0.0, 0.0, 0.0, 0.0, 0.0, 0.0, 0.0)",0.000859,0.001575,-0.000594,"(0.0, 0.0, 0.0, 0.0, 0.0, 0.0, 0.0, 0.0, 0.0)",0.177,0.474,-9.894,"(0.0, 0.0, 0.0, 0.0, 0.0, 0.0, 0.0, 0.0, 0.0)",0,0,0,,-0.3504,-0.1307,0.1538,"(0.0, 0.0, 0.0, 0.0, 0.0, 0.0, 0.0, 0.0, 0.0)"
1666913731.6270573,0,1666913731,626642942,IMU1_Frame,0,0,0,,-0.01519726244575249,-0.014989177420183662,0.8699972654322609,0.492594281244524,"(0.0, 0.0, 0.0, 0.0, 0.0, 0.0, 0.0, 0.0, 0.0)",0.000901,0.000501,-4e-06,"(0.0, 0.0, 0.0, 0.0, 0.0, 0.0, 0.0, 0.0, 0.0)",0.22,0.436,-9.887,"(0.0, 0.0, 0.0, 0.0, 0.0, 0.0, 0.0, 0.0, 0.0)",0,0,0,,-0.3494,-0.1268,0.1562,"(0.0, 0.0, 0.0, 0.0, 0.0, 0.0, 0.0, 0.0, 0.0)"
1666913731.6520514,0,1666913731,651638746,IMU1_Frame,0,0,0,,-0.0152006855783813,-0.01497715209336635,0.8699931413831655,0.49260182502643113,"(0.0, 0.0, 0.0, 0.0, 0.0, 0.0, 0.0, 0.0, 0.0)",0.00042,-0.000323,-0.000361,"(0.0, 0.0, 0.0, 0.0, 0.0, 0.0, 0.0, 0.0, 0.0)",0.223,0.441,-9.842,"(0.0, 0.0, 0.0, 0.0, 0.0, 0.0, 0.0, 0.0, 0.0)",0,0,0,,-0.3503,-0.1258,0.1561,"(0.0, 0.0, 0.0, 0.0, 0.0, 0.0, 0.0, 0.0, 0.0)"
1666913731.6772892,0,1666913731,676885843,IMU1_Frame,0,0,0,,-0.015208407330256274,-0.0149727187907316,0.8699888864325995,0.4926092361316994,"(0.0, 0.0, 0.0, 0.0, 0.0, 0.0, 0.0, 0.0, 0.0)",0.00133,-0.001155,-1.1e-05,"(0.0, 0.0, 0.0, 0.0, 0.0, 0.0, 0.0, 0.0, 0.0)",0.203,0.432,-9.843,"(0.0, 0.0, 0.0, 0.0, 0.0, 0.0, 0.0, 0.0, 0.0)",0,0,0,,-0.3493,-0.1229,0.1538,"(0.0, 0.0, 0.0, 0.0, 0.0, 0.0, 0.0, 0.0, 0.0)"
1666913731.70221,0,1666913731,701795578,IMU1_Frame,0,0,0,,-0.015199679145151811,-0.014957667260720595,0.8699934464190704,0.4926019093871543,"(0.0, 0.0, 0.0, 0.0, 0.0, 0.0, 0.0, 0.0, 0.0)",0.002746,-0.000671,-0.000315,"(0.0, 0.0, 0.0, 0.0, 0.0, 0.0, 0.0, 0.0, 0.0)",0.146,0.417,-9.79,"(0.0, 0.0, 0.0, 0.0, 0.0, 0.0, 0.0, 0.0, 0.0)",0,0,0,,-0.3502,-0.1189,0.1537,"(0.0, 0.0, 0.0, 0.0, 0.0, 0.0, 0.0, 0.0, 0.0)"
1666913731.7270417,0,1666913731,726574659,IMU1_Frame,0,0,0,,-0.015171600655826286,-0.0149434920527391,0.8699937503350743,0.4926026684425514,"(0.0, 0.0, 0.0, 0.0, 0.0, 0.0, 0.0, 0.0, 0.0)",0.002397,-0.00137,0.000126,"(0.0, 0.0, 0.0, 0.0, 0.0, 0.0, 0.0, 0.0, 0.0)",0.111,0.395,-9.811,"(0.0, 0.0, 0.0, 0.0, 0.0, 0.0, 0.0, 0.0, 0.0)",0,0,0,,-0.3493,-0.1209,0.1608,"(0.0, 0.0, 0.0, 0.0, 0.0, 0.0, 0.0, 0.0, 0.0)"
1666913731.7519584,0,1666913731,751537084,IMU1_Frame,0,0,0,,-0.015135931025657716,-0.014933617417863913,0.8699940100325019,0.49260360653406743,"(0.0, 0.0, 0.0, 0.0, 0.0, 0.0, 0.0, 0.0, 0.0)",0.001769,-0.002485,-0.000825,"(0.0, 0.0, 0.0, 0.0, 0.0, 0.0, 0.0, 0.0, 0.0)",0.083,0.332,-9.784,"(0.0, 0.0, 0.0, 0.0, 0.0, 0.0, 0.0, 0.0, 0.0)",0,0,0,,-0.3484,-0.1219,0.1538,"(0.0, 0.0, 0.0, 0.0, 0.0, 0.0, 0.0, 0.0, 0.0)"
1666913731.777173,0,1666913731,776758432,IMU1_Frame,0,0,0,,-0.015088501647378202,-0.014920319545455718,0.8699900566700247,0.4926124465317393,"(0.0, 0.0, 0.0, 0.0, 0.0, 0.0, 0.0, 0.0, 0.0)",0.001285,-0.001807,-0.000805,"(0.0, 0.0, 0.0, 0.0, 0.0, 0.0, 0.0, 0.0, 0.0)",0.087,0.367,-9.813,"(0.0, 0.0, 0.0, 0.0, 0.0, 0.0, 0.0, 0.0, 0.0)",0,0,0,,-0.3465,-0.123,0.1527,"(0.0, 0.0, 0.0, 0.0, 0.0, 0.0, 0.0, 0.0, 0.0)"
1666913731.8019083,0,1666913731,801499843,IMU1_Frame,0,0,0,,-0.01506155978994125,-0.01492549794705585,0.8699857558904732,0.4926207095478308,"(0.0, 0.0, 0.0, 0.0, 0.0, 0.0, 0.0, 0.0, 0.0)",-0.000535,0.000355,-0.001707,"(0.0, 0.0, 0.0, 0.0, 0.0, 0.0, 0.0, 0.0, 0.0)",0.065,0.371,-9.868,"(0.0, 0.0, 0.0, 0.0, 0.0, 0.0, 0.0, 0.0, 0.0)",0,0,0,,-0.3494,-0.1268,0.1503,"(0.0, 0.0, 0.0, 0.0, 0.0, 0.0, 0.0, 0.0, 0.0)"
1666913731.8281162,0,1666913731,827349662,IMU1_Frame,0,0,0,,-0.015046508015020568,-0.014933968058197022,0.8699813685549818,0.4926286609219884,"(0.0, 0.0, 0.0, 0.0, 0.0, 0.0, 0.0, 0.0, 0.0)",-0.001589,-0.000596,-0.000917,"(0.0, 0.0, 0.0, 0.0, 0.0, 0.0, 0.0, 0.0, 0.0)",0.047,0.383,-9.828,"(0.0, 0.0, 0.0, 0.0, 0.0, 0.0, 0.0, 0.0, 0.0)",0,0,0,,-0.3494,-0.1268,0.1573,"(0.0, 0.0, 0.0, 0.0, 0.0, 0.0, 0.0, 0.0, 0.0)"
1666913731.8520298,0,1666913731,851482629,IMU1_Frame,0,0,0,,-0.015036016374335893,-0.0149497679837104,0.8699682521903433,0.492651664799484,"(0.0, 0.0, 0.0, 0.0, 0.0, 0.0, 0.0, 0.0, 0.0)",-0.001886,0.0004,-0.001651,"(0.0, 0.0, 0.0, 0.0, 0.0, 0.0, 0.0, 0.0, 0.0)",0.085,0.405,-9.91,"(0.0, 0.0, 0.0, 0.0, 0.0, 0.0, 0.0, 0.0, 0.0)",0,0,0,,-0.3484,-0.1288,0.1539,"(0.0, 0.0, 0.0, 0.0, 0.0, 0.0, 0.0, 0.0, 0.0)"
1666913731.8768995,0,1666913731,876482009,IMU1_Frame,0,0,0,,-0.015037154497808826,-0.014969121536355101,0.8699636473689236,0.4926591739139726,"(0.0, 0.0, 0.0, 0.0, 0.0, 0.0, 0.0, 0.0, 0.0)",-0.001703,-4e-05,-0.001585,"(0.0, 0.0, 0.0, 0.0, 0.0, 0.0, 0.0, 0.0, 0.0)",0.077,0.382,-9.872,"(0.0, 0.0, 0.0, 0.0, 0.0, 0.0, 0.0, 0.0, 0.0)",0,0,0,,-0.3493,-0.1248,0.155,"(0.0, 0.0, 0.0, 0.0, 0.0, 0.0, 0.0, 0.0, 0.0)"
1666913731.902738,0,1666913731,902329921,IMU1_Frame,0,0,0,,-0.015056766098370415,-0.014967979937660664,0.8699593065004037,0.49266627488045245,"(0.0, 0.0, 0.0, 0.0, 0.0, 0.0, 0.0, 0.0, 0.0)",-0.001061,0.002256,0.000933,"(0.0, 0.0, 0.0, 0.0, 0.0, 0.0, 0.0, 0.0, 0.0)",0.125,0.415,-9.84,"(0.0, 0.0, 0.0, 0.0, 0.0, 0.0, 0.0, 0.0, 0.0)",0,0,0,,-0.3491,-0.109,0.1571,"(0.0, 0.0, 0.0, 0.0, 0.0, 0.0, 0.0, 0.0, 0.0)"
1666913731.9277449,0,1666913731,927300930,IMU1_Frame,0,0,0,,-0.01508826783058767,-0.014970128612332038,0.869954879138995,0.4926730636897648,"(0.0, 0.0, 0.0, 0.0, 0.0, 0.0, 0.0, 0.0, 0.0)",-0.000215,0.001641,-1e-05,"(0.0, 0.0, 0.0, 0.0, 0.0, 0.0, 0.0, 0.0, 0.0)",0.153,0.431,-9.855,"(0.0, 0.0, 0.0, 0.0, 0.0, 0.0, 0.0, 0.0, 0.0)",0,0,0,,-0.3475,-0.1308,0.1575,"(0.0, 0.0, 0.0, 0.0, 0.0, 0.0, 0.0, 0.0, 0.0)"
1666913731.9520535,0,1666913731,951652288,IMU1_Frame,0,0,0,,-0.015115339532208963,-0.014964816884527592,0.8699548813499625,0.4926723913330352,"(0.0, 0.0, 0.0, 0.0, 0.0, 0.0, 0.0, 0.0, 0.0)",0.000261,-0.000126,7.9e-05,"(0.0, 0.0, 0.0, 0.0, 0.0, 0.0, 0.0, 0.0, 0.0)",0.151,0.441,-9.917,"(0.0, 0.0, 0.0, 0.0, 0.0, 0.0, 0.0, 0.0, 0.0)",0,0,0,,-0.3483,-0.1199,0.1561,"(0.0, 0.0, 0.0, 0.0, 0.0, 0.0, 0.0, 0.0, 0.0)"
